%time,field.header.seq,field.header.stamp,field.header.frame_id,field.orientation.x,field.orientation.y,field.orientation.z,field.orientation.w,field.orientation_covariance0,field.orientation_covariance1,field.orientation_covariance2,field.orientation_covariance3,field.orientation_covariance4,field.orientation_covariance5,field.orientation_covariance6,field.orientation_covariance7,field.orientation_covariance8,field.angular_velocity.x,field.angular_velocity.y,field.angular_velocity.z,field.angular_velocity_covariance0,field.angular_velocity_covariance1,field.angular_velocity_covariance2,field.angular_velocity_covariance3,field.angular_velocity_covariance4,field.angular_velocity_covariance5,field.angular_velocity_covariance6,field.angular_velocity_covariance7,field.angular_velocity_covariance8,field.linear_acceleration.x,field.linear_acceleration.y,field.linear_acceleration.z,field.linear_acceleration_covariance0,field.linear_acceleration_covariance1,field.linear_acceleration_covariance2,field.linear_acceleration_covariance3,field.linear_acceleration_covariance4,field.linear_acceleration_covariance5,field.linear_acceleration_covariance6,field.linear_acceleration_covariance7,field.linear_acceleration_covariance8
1597380896808170430,28319,1596774716229898929,imu_link,0.781488556075,0.606281422324,0.133787581132,-0.0616389227965,0.0025,0.0,0.0,0.0,0.0025,0.0,0.0,0.0,0.0025,-0.1,0.18,0.23,0.02,0.0,0.0,0.0,0.02,0.0,0.0,0.0,0.02,3.04522265625,0.732385625,-9.55701953125,0.04,0.0,0.0,0.0,0.04,0.0,0.0,0.0,0.04
1597380896822922698,28320,1596774716244818925,imu_link,0.783663471264,0.60277059084,0.136431277865,-0.0626552874513,0.0025,0.0,0.0,0.0,0.0025,0.0,0.0,0.0,0.0025,-0.05,0.2,0.23,0.02,0.0,0.0,0.0,0.02,0.0,0.0,0.0,0.02,3.22716992187,0.646200078125,-9.7676953125,0.04,0.0,0.0,0.0,0.04,0.0,0.0,0.0,0.04
1597380896842252282,28321,1596774716264436006,imu_link,0.785334936975,0.59964653725,0.138894018657,-0.0661930412631,0.0025,0.0,0.0,0.0,0.0025,0.0,0.0,0.0,0.0025,0.13,0.33,0.19,0.02,0.0,0.0,0.0,0.02,0.0,0.0,0.0,0.02,3.43324914062,0.488384765625,-9.52369445312,0.04,0.0,0.0,0.0,0.04,0.0,0.0,0.0,0.04
1597380896862459141,28322,1596774716284349918,imu_link,0.786802502383,0.596504949012,0.141732801653,-0.0709611230354,0.0025,0.0,0.0,0.0,0.0025,0.0,0.0,0.0,0.0025,0.16,0.34,0.16,0.02,0.0,0.0,0.0,0.02,0.0,0.0,0.0,0.02,3.35663976562,0.04290125,-9.51411828125,0.04,0.0,0.0,0.0,0.04,0.0,0.0,0.0,0.04
1597380896883330833,28323,1596774716304306030,imu_link,0.788214253362,0.593675880685,0.14302632897,-0.0762280047638,0.0025,0.0,0.0,0.0,0.0025,0.0,0.0,0.0,0.0025,0.1,0.32,0.12,0.02,0.0,0.0,0.0,0.02,0.0,0.0,0.0,0.02,3.10765929687,0.3018409375,-9.08778710937,0.04,0.0,0.0,0.0,0.04,0.0,0.0,0.0,0.04
1597380896902658532,28324,1596774716324640035,imu_link,0.789756947846,0.590951632569,0.144291193134,-0.0789948281685,0.0025,0.0,0.0,0.0,0.0025,0.0,0.0,0.0,0.0025,0.09,0.26,0.11,0.02,0.0,0.0,0.0,0.02,0.0,0.0,0.0,0.02,2.681328125,0.20607921875,-10.078729375,0.04,0.0,0.0,0.0,0.04,0.0,0.0,0.0,0.04
1597380896922366784,28325,1596774716344482898,imu_link,0.791518580918,0.588384564968,0.144106911627,-0.0808401990939,0.0025,0.0,0.0,0.0,0.0025,0.0,0.0,0.0,0.0025,0.07,0.45,0.11,0.02,0.0,0.0,0.0,0.02,0.0,0.0,0.0,0.02,2.69090429687,-0.39760265625,-9.90635828125,0.04,0.0,0.0,0.0,0.04,0.0,0.0,0.0,0.04
1597380896942545997,28326,1596774716364351987,imu_link,0.792654456155,0.586332235772,0.143373033724,-0.0857764281851,0.0025,0.0,0.0,0.0,0.0025,0.0,0.0,0.0,0.0025,0.09,0.58,0.02,0.02,0.0,0.0,0.0,0.02,0.0,0.0,0.0,0.02,2.8728515625,-0.47421203125,-9.56659570312,0.04,0.0,0.0,0.0,0.04,0.0,0.0,0.0,0.04
1597380896962193930,28327,1596774716384358882,imu_link,0.793069438038,0.584906928447,0.143214608369,-0.0917296432699,0.0025,0.0,0.0,0.0,0.0025,0.0,0.0,0.0,0.0025,0.15,0.59,-0.08,0.02,0.0,0.0,0.0,0.02,0.0,0.0,0.0,0.02,2.56143445312,-0.541245234375,-9.2651378125,0.04,0.0,0.0,0.0,0.04,0.0,0.0,0.0,0.04
1597380896982406164,28328,1596774716404303073,imu_link,0.793549888975,0.5836659706,0.142751200359,-0.0960973634782,0.0025,0.0,0.0,0.0,0.0025,0.0,0.0,0.0,0.0025,0.08,0.6,-0.15,0.02,0.0,0.0,0.0,0.02,0.0,0.0,0.0,0.02,1.9535390625,-0.51251671875,-8.82463390625,0.04,0.0,0.0,0.0,0.04,0.0,0.0,0.0,0.04
1597380897002271776,28329,1596774716424278020,imu_link,0.794063029036,0.583015591982,0.141527714418,-0.09760446442,0.0025,0.0,0.0,0.0,0.0025,0.0,0.0,0.0,0.0025,-0.0,0.53,-0.17,0.02,0.0,0.0,0.0,0.02,0.0,0.0,0.0,0.02,1.8340284375,-0.3018409375,-8.47491210937,0.04,0.0,0.0,0.0,0.04,0.0,0.0,0.0,0.04
1597380897021818828,28330,1596774716444118976,imu_link,0.794909668564,0.581866332056,0.141274671615,-0.0979370083433,0.0025,0.0,0.0,0.0,0.0025,0.0,0.0,0.0,0.0025,-0.04,0.49,-0.12,0.02,0.0,0.0,0.0,0.02,0.0,0.0,0.0,0.02,2.07343273437,-0.526689453125,-8.49406445312,0.04,0.0,0.0,0.0,0.04,0.0,0.0,0.0,0.04
1597380897042002230,28331,1596774716464159965,imu_link,0.795757596859,0.580770496246,0.139896479935,-0.0995211165151,0.0025,0.0,0.0,0.0,0.0025,0.0,0.0,0.0,0.0025,0.04,0.39,-0.13,0.02,0.0,0.0,0.0,0.02,0.0,0.0,0.0,0.02,2.65719617187,-0.411775390625,-7.86203710937,0.04,0.0,0.0,0.0,0.04,0.0,0.0,0.0,0.04
1597380897062154286,28332,1596774716484208106,imu_link,0.79603604245,0.579829059889,0.140879491588,-0.101379728145,0.0025,0.0,0.0,0.0,0.0025,0.0,0.0,0.0,0.0025,0.01,0.27,-0.16,0.02,0.0,0.0,0.0,0.02,0.0,0.0,0.0,0.02,2.58556640625,-1.06295507812,-7.29704296875,0.04,0.0,0.0,0.0,0.04,0.0,0.0,0.0,0.04
1597380897082953790,28333,1596774716504187107,imu_link,-0.796402065526,-0.579300960144,-0.140035383701,0.10268514456,0.0025,0.0,0.0,0.0,0.0025,0.0,0.0,0.0,0.0025,-0.08,0.06,-0.26,0.02,0.0,0.0,0.0,0.02,0.0,0.0,0.0,0.02,2.42775109375,-0.24898046875,-7.60846007812,0.04,0.0,0.0,0.0,0.04,0.0,0.0,0.0,0.04
1597380897103029330,28334,1596774716524204969,imu_link,0.797095501659,0.578911252241,0.138972082385,-0.100932074102,0.0025,0.0,0.0,0.0,0.0025,0.0,0.0,0.0,0.0025,-0.06,-0.06,-0.21,0.02,0.0,0.0,0.0,0.02,0.0,0.0,0.0,0.02,2.59514257812,-0.17696765625,-7.83330859375,0.04,0.0,0.0,0.0,0.04,0.0,0.0,0.0,0.04
1597380897122178307,28335,1596774716544286012,imu_link,-0.797696720748,-0.578892369031,-0.136292488422,0.09993960369,0.0025,0.0,0.0,0.0,0.0025,0.0,0.0,0.0,0.0025,0.11,-0.18,-0.2,0.02,0.0,0.0,0.0,0.02,0.0,0.0,0.0,0.02,2.9540575,0.01455578125,-8.33126953125,0.04,0.0,0.0,0.0,0.04,0.0,0.0,0.0,0.04
1597380897142091880,28336,1596774716563962936,imu_link,-0.798231659318,-0.578802044684,-0.134078903277,0.099182956339,0.0025,0.0,0.0,0.0,0.0025,0.0,0.0,0.0,0.0025,0.16,-0.2,-0.15,0.02,0.0,0.0,0.0,0.02,0.0,0.0,0.0,0.02,3.19844140625,-0.598702265625,-9.40878039062,0.04,0.0,0.0,0.0,0.04,0.0,0.0,0.0,0.04
1597380897162162952,28337,1596774716584007024,imu_link,-0.797054288462,-0.580819819388,-0.130594328811,0.101478667381,0.0025,0.0,0.0,0.0,0.0025,0.0,0.0,0.0,0.0025,0.14,-0.08,-0.19,0.02,0.0,0.0,0.0,0.02,0.0,0.0,0.0,0.02,3.30875890625,-0.45965625,-8.96827648437,0.04,0.0,0.0,0.0,0.04,0.0,0.0,0.0,0.04
1597380897182404089,28338,1596774716604029893,imu_link,-0.797570565659,-0.580183696231,-0.129072704188,0.102996642936,0.0025,0.0,0.0,0.0,0.0025,0.0,0.0,0.0,0.0025,0.11,-0.11,-0.16,0.02,0.0,0.0,0.0,0.02,0.0,0.0,0.0,0.02,3.62936914062,-0.78524609375,-9.71521789062,0.04,0.0,0.0,0.0,0.04,0.0,0.0,0.0,0.04
1597380897201810817,28339,1596774716623960018,imu_link,-0.797568614037,-0.580029855098,-0.128109083841,0.105060628858,0.0025,0.0,0.0,0.0,0.0025,0.0,0.0,0.0,0.0025,0.02,-0.05,-0.24,0.02,0.0,0.0,0.0,0.02,0.0,0.0,0.0,0.02,3.43324914062,-0.13406640625,-8.8054815625,0.04,0.0,0.0,0.0,0.04,0.0,0.0,0.0,0.04
1597380897221566193,28340,1596774716643879890,imu_link,-0.797764197925,-0.579729213246,-0.128924740772,0.104234039711,0.0025,0.0,0.0,0.0,0.0025,0.0,0.0,0.0,0.0025,-0.01,-0.14,-0.19,0.02,0.0,0.0,0.0,0.02,0.0,0.0,0.0,0.02,3.30875890625,-0.1149140625,-9.073614375,0.04,0.0,0.0,0.0,0.04,0.0,0.0,0.0,0.04
1597380897241631401,28341,1596774716663851022,imu_link,-0.797771743745,-0.579733131991,-0.129513712556,0.103421171979,0.0025,0.0,0.0,0.0,0.0025,0.0,0.0,0.0,0.0025,-0.01,-0.06,-0.19,0.02,0.0,0.0,0.0,0.02,0.0,0.0,0.0,0.02,3.32791125,0.047880859375,-8.71431640625,0.04,0.0,0.0,0.0,0.04,0.0,0.0,0.0,0.04
1597380897261700029,28342,1596774716683847904,imu_link,-0.797840968804,-0.579656851675,-0.130456946524,0.102121045369,0.0025,0.0,0.0,0.0,0.0025,0.0,0.0,0.0,0.0025,0.01,-0.11,-0.19,0.02,0.0,0.0,0.0,0.02,0.0,0.0,0.0,0.02,3.56731554687,0.119893671875,-8.997005,0.04,0.0,0.0,0.0,0.04,0.0,0.0,0.0,0.04
1597380897281980332,28343,1596774716703973054,imu_link,-0.797827071695,-0.579419305001,-0.132175848758,0.101364577974,0.0025,0.0,0.0,0.0,0.0025,0.0,0.0,0.0,0.0025,0.03,-0.11,-0.17,0.02,0.0,0.0,0.0,0.02,0.0,0.0,0.0,0.02,3.753859375,0.047880859375,-8.6522628125,0.04,0.0,0.0,0.0,0.04,0.0,0.0,0.0,0.04
1597380897301721466,28344,1596774716723941087,imu_link,-0.797752892408,-0.579104503417,-0.133824408085,0.101584076394,0.0025,0.0,0.0,0.0,0.0025,0.0,0.0,0.0,0.0025,0.05,-0.16,-0.18,0.02,0.0,0.0,0.0,0.02,0.0,0.0,0.0,0.02,3.78258789062,0.703657109375,-8.91541601562,0.04,0.0,0.0,0.0,0.04,0.0,0.0,0.0,0.04
1597380897322013427,28345,1596774716743916034,imu_link,0.797722056313,0.578706856455,0.137560165069,-0.0990711670974,0.0025,0.0,0.0,0.0,0.0025,0.0,0.0,0.0,0.0025,0.02,-0.13,-0.09,0.02,0.0,0.0,0.0,0.02,0.0,0.0,0.0,0.02,3.710958125,0.5745703125,-8.73346875,0.04,0.0,0.0,0.0,0.04,0.0,0.0,0.0,0.04
1597380897342849305,28346,1596774716763937950,imu_link,0.798448934085,0.577440379408,0.140065587052,-0.0970749154569,0.0025,0.0,0.0,0.0,0.0025,0.0,0.0,0.0,0.0025,0.01,-0.17,0.0,0.02,0.0,0.0,0.0,0.02,0.0,0.0,0.0,0.02,3.91205773437,0.526689453125,-8.85795898437,0.04,0.0,0.0,0.0,0.04,0.0,0.0,0.0,0.04
1597380897363058677,28347,1596774716783953905,imu_link,0.799408028043,0.575559012013,0.142904097028,-0.0962135512503,0.0025,0.0,0.0,0.0,0.0025,0.0,0.0,0.0,0.0025,0.03,-0.16,0.06,0.02,0.0,0.0,0.0,0.02,0.0,0.0,0.0,0.02,3.99326367187,0.411775390625,-9.06403820312,0.04,0.0,0.0,0.0,0.04,0.0,0.0,0.0,0.04
1597380897381819142,28348,1596774716803828954,imu_link,0.800382325669,0.573624258336,0.145132074016,-0.0963328817015,0.0025,0.0,0.0,0.0,0.0025,0.0,0.0,0.0,0.0025,0.05,-0.13,0.11,0.02,0.0,0.0,0.0,0.02,0.0,0.0,0.0,0.02,4.10817773437,-0.3064375,-9.14524414062,0.04,0.0,0.0,0.0,0.04,0.0,0.0,0.0,0.04
1597380897401996331,28349,1596774716823867082,imu_link,0.801488884064,0.571334442251,0.146047693374,-0.099310599024,0.0025,0.0,0.0,0.0,0.0025,0.0,0.0,0.0,0.0025,-0.01,-0.08,0.08,0.02,0.0,0.0,0.0,0.02,0.0,0.0,0.0,0.02,4.07485265625,-0.55541796875,-9.41337695312,0.04,0.0,0.0,0.0,0.04,0.0,0.0,0.0,0.04
1597380897422092326,28350,1596774716843806982,imu_link,0.80248376676,0.569251918803,0.146604867991,-0.10236732734,0.0025,0.0,0.0,0.0,0.0025,0.0,0.0,0.0,0.0025,-0.04,-0.01,0.03,0.02,0.0,0.0,0.0,0.02,0.0,0.0,0.0,0.02,3.9790909375,-0.4213515625,-9.15022375,0.04,0.0,0.0,0.0,0.04,0.0,0.0,0.0,0.04
1597380897441680988,28351,1596774716863845109,imu_link,0.80341763369,0.567254629208,0.147864951121,-0.104298838675,0.0025,0.0,0.0,0.0,0.0025,0.0,0.0,0.0,0.0025,-0.1,-0.0,0.01,0.02,0.0,0.0,0.0,0.02,0.0,0.0,0.0,0.02,4.04114453125,-0.3064375,-9.2651378125,0.04,0.0,0.0,0.0,0.04,0.0,0.0,0.0,0.04
1597380897461861527,28352,1596774716883685111,imu_link,-0.80445502617,-0.564980614641,-0.150066158917,0.105494852469,0.0025,0.0,0.0,0.0,0.0025,0.0,0.0,0.0,0.0025,-0.14,0.04,0.01,0.02,0.0,0.0,0.0,0.02,0.0,0.0,0.0,0.02,4.08442882812,-0.564994140625,-8.86753515625,0.04,0.0,0.0,0.0,0.04,0.0,0.0,0.0,0.04
1597380897483099251,28353,1596774716903964042,imu_link,-0.805184245377,-0.562982242327,-0.151918583867,0.107935488588,0.0025,0.0,0.0,0.0,0.0025,0.0,0.0,0.0,0.0025,-0.15,0.01,-0.03,0.02,0.0,0.0,0.0,0.02,0.0,0.0,0.0,0.02,4.12273351562,-0.167391484375,-9.05905859375,0.04,0.0,0.0,0.0,0.04,0.0,0.0,0.0,0.04
1597380897502259677,28354,1596774716923660039,imu_link,-0.805670001563,-0.561372156759,-0.155006081393,0.10830634759,0.0025,0.0,0.0,0.0,0.0025,0.0,0.0,0.0,0.0025,-0.17,0.04,-0.05,0.02,0.0,0.0,0.0,0.02,0.0,0.0,0.0,0.02,4.07485265625,-0.234807734375,-9.0782109375,0.04,0.0,0.0,0.0,0.04,0.0,0.0,0.0,0.04
1597380897522203828,28355,1596774716943795919,imu_link,0.806039454003,0.559967586539,0.157972501226,-0.108542109214,0.0025,0.0,0.0,0.0,0.0025,0.0,0.0,0.0,0.0025,-0.21,0.07,-0.09,0.02,0.0,0.0,0.0,0.02,0.0,0.0,0.0,0.02,3.85919726562,0.35929796875,-9.073614375,0.04,0.0,0.0,0.0,0.04,0.0,0.0,0.0,0.04
1597380897541300235,28356,1596774716963613033,imu_link,0.806637364146,0.558645067269,0.161249645253,-0.106067919206,0.0025,0.0,0.0,0.0,0.0025,0.0,0.0,0.0,0.0025,-0.17,0.07,-0.03,0.02,0.0,0.0,0.0,0.02,0.0,0.0,0.0,0.02,3.7875675,0.234807734375,-8.99202539062,0.04,0.0,0.0,0.0,0.04,0.0,0.0,0.0,0.04
1597380897561260932,28357,1596774716983580112,imu_link,0.807382636847,0.55724668775,0.163386783805,-0.104470883923,0.0025,0.0,0.0,0.0,0.0025,0.0,0.0,0.0,0.0025,-0.14,0.06,-0.01,0.02,0.0,0.0,0.0,0.02,0.0,0.0,0.0,0.02,3.7155546875,0.407178828125,-10.0500008594,0.04,0.0,0.0,0.0,0.04,0.0,0.0,0.0,0.04
1597380897582915721,28358,1596774717004638910,imu_link,0.808391262644,0.55589571417,0.164569739688,-0.101981970106,0.0025,0.0,0.0,0.0,0.0025,0.0,0.0,0.0,0.0025,-0.14,0.14,0.03,0.02,0.0,0.0,0.0,0.02,0.0,0.0,0.0,0.02,3.49530273437,0.732385625,-9.90635828125,0.04,0.0,0.0,0.0,0.04,0.0,0.0,0.0,0.04
1597380897603855062,28359,1596774717024647951,imu_link,0.809794997932,0.553970250415,0.166026426273,-0.098915361585,0.0025,0.0,0.0,0.0,0.0025,0.0,0.0,0.0,0.0025,-0.08,0.21,0.12,0.02,0.0,0.0,0.0,0.02,0.0,0.0,0.0,0.02,3.60562023437,0.847682734375,-10.15533875,0.04,0.0,0.0,0.0,0.04,0.0,0.0,0.0,0.04
1597380897621147701,28360,1596774717043668031,imu_link,0.811447144224,0.551323107333,0.167784106276,-0.0971846548205,0.0025,0.0,0.0,0.0,0.0025,0.0,0.0,0.0,0.0025,-0.01,0.29,0.24,0.02,0.0,0.0,0.0,0.02,0.0,0.0,0.0,0.02,3.80671984375,-0.277708984375,-10.3660145312,0.04,0.0,0.0,0.0,0.04,0.0,0.0,0.0,0.04
1597380897641928356,28361,1596774717064033031,imu_link,0.813388733238,0.547823048619,0.168234142279,-0.0999297223829,0.0025,0.0,0.0,0.0,0.0025,0.0,0.0,0.0,0.0025,-0.03,0.38,0.23,0.02,0.0,0.0,0.0,0.02,0.0,0.0,0.0,0.02,4.24722375,-0.45965625,-10.3135371094,0.04,0.0,0.0,0.0,0.04,0.0,0.0,0.0,0.04
1597380897661276091,28362,1596774717083551883,imu_link,0.81485883021,0.544357481981,0.170009591045,-0.10381116314,0.0025,0.0,0.0,0.0,0.0025,0.0,0.0,0.0,0.0025,-0.04,0.4,0.2,0.02,0.0,0.0,0.0,0.02,0.0,0.0,0.0,0.02,4.31425695312,-0.55541796875,-9.91133789062,0.04,0.0,0.0,0.0,0.04,0.0,0.0,0.0,0.04
1597380897682764305,28363,1596774717104413986,imu_link,0.816329846407,0.540893388958,0.171319713884,-0.108117895285,0.0025,0.0,0.0,0.0,0.0025,0.0,0.0,0.0,0.0025,0.01,0.35,0.15,0.02,0.0,0.0,0.0,0.02,0.0,0.0,0.0,0.02,4.53450890625,-0.229828125,-9.96879492187,0.04,0.0,0.0,0.0,0.04,0.0,0.0,0.0,0.04
1597380897701874396,28364,1596774717123636960,imu_link,0.817274983283,0.538085469853,0.173484239855,-0.111484740454,0.0025,0.0,0.0,0.0,0.0025,0.0,0.0,0.0,0.0025,0.04,0.31,0.14,0.02,0.0,0.0,0.0,0.02,0.0,0.0,0.0,0.02,4.85511914062,-0.1149140625,-9.60988,0.04,0.0,0.0,0.0,0.04,0.0,0.0,0.0,0.04
1597380897721245798,28365,1596774717143373966,imu_link,0.818093308076,0.535454257583,0.175934647877,-0.114276318601,0.0025,0.0,0.0,0.0,0.0025,0.0,0.0,0.0,0.0025,0.05,0.16,0.11,0.02,0.0,0.0,0.0,0.02,0.0,0.0,0.0,0.02,4.95088085937,-0.1486221875,-9.91133789062,0.04,0.0,0.0,0.0,0.04,0.0,0.0,0.0,0.04
1597380897741678922,28366,1596774717163625955,imu_link,0.818825098088,0.533763360897,0.177005863173,-0.115286849676,0.0025,0.0,0.0,0.0,0.0025,0.0,0.0,0.0,0.0025,0.01,-0.0,0.03,0.02,0.0,0.0,0.0,0.02,0.0,0.0,0.0,0.02,4.7451846875,0.009576171875,-10.2702528125,0.04,0.0,0.0,0.0,0.04,0.0,0.0,0.0,0.04
1597380897762388996,28367,1596774717183725118,imu_link,0.819534047932,0.533112017171,0.176585620414,-0.113899254128,0.0025,0.0,0.0,0.0,0.0025,0.0,0.0,0.0,0.0025,-0.04,-0.11,-0.07,0.02,0.0,0.0,0.0,0.02,0.0,0.0,0.0,0.02,3.50028234375,0.0812059375,-10.7348886719,0.04,0.0,0.0,0.0,0.04,0.0,0.0,0.0,0.04
1597380897781251249,28368,1596774717203407049,imu_link,0.820405693675,0.534054213569,0.17255060267,-0.109301803615,0.0025,0.0,0.0,0.0,0.0025,0.0,0.0,0.0,0.0025,-0.06,-0.14,-0.18,0.02,0.0,0.0,0.0,0.02,0.0,0.0,0.0,0.02,1.73328710937,1.4509815625,-11.5775917969,0.04,0.0,0.0,0.0,0.04,0.0,0.0,0.0,0.04
1597380897802261451,28369,1596774717223434925,imu_link,0.821993256223,0.535108171907,0.167343308811,-0.0999127022815,0.0025,0.0,0.0,0.0,0.0025,0.0,0.0,0.0,0.0025,-0.02,0.01,-0.08,0.02,0.0,0.0,0.0,0.02,0.0,0.0,0.0,0.02,0.63662390625,1.97767101562,-11.9269305469,0.04,0.0,0.0,0.0,0.04,0.0,0.0,0.0,0.04
1597380897821702876,28370,1596774717243530035,imu_link,0.824078222113,0.534818562034,0.162583553589,-0.0918192661981,0.0025,0.0,0.0,0.0,0.0025,0.0,0.0,0.0,0.0025,0.1,0.27,0.11,0.02,0.0,0.0,0.0,0.02,0.0,0.0,0.0,0.02,0.799801875,2.40361914062,-11.0363465625,0.04,0.0,0.0,0.0,0.04,0.0,0.0,0.0,0.04
1597380897841322395,28371,1596774717263318061,imu_link,0.826185029819,0.533802351736,0.159762148715,-0.0833630710966,0.0025,0.0,0.0,0.0,0.0025,0.0,0.0,0.0,0.0025,0.18,0.51,0.31,0.02,0.0,0.0,0.0,0.02,0.0,0.0,0.0,0.02,0.962596796875,1.90565820312,-9.90635828125,0.04,0.0,0.0,0.0,0.04,0.0,0.0,0.0,0.04
1597380897861678864,28372,1596774717283499956,imu_link,0.828571003349,0.531872380067,0.157473708811,-0.0760519215001,0.0025,0.0,0.0,0.0,0.0025,0.0,0.0,0.0,0.0025,0.23,0.7,0.41,0.02,0.0,0.0,0.0,0.02,0.0,0.0,0.0,0.02,1.74784289062,1.56091601562,-8.42703125,0.04,0.0,0.0,0.0,0.04,0.0,0.0,0.0,0.04
1597380897881176140,28373,1596774717303388118,imu_link,0.83051056117,0.528073038968,0.160318114589,-0.0754266228575,0.0025,0.0,0.0,0.0,0.0025,0.0,0.0,0.0,0.0025,0.22,0.74,0.5,0.02,0.0,0.0,0.0,0.02,0.0,0.0,0.0,0.02,2.62846765625,0.58912609375,-7.11509570312,0.04,0.0,0.0,0.0,0.04,0.0,0.0,0.0,0.04
1597380897901242744,28374,1596774717323355913,imu_link,0.832345558396,0.52335473622,0.164080303058,-0.0798645455868,0.0025,0.0,0.0,0.0,0.0025,0.0,0.0,0.0,0.0025,0.19,0.59,0.48,0.02,0.0,0.0,0.0,0.02,0.0,0.0,0.0,0.02,2.9494609375,-0.1578153125,-7.21085742187,0.04,0.0,0.0,0.0,0.04,0.0,0.0,0.0,0.04
1597380897921773746,28375,1596774717343321084,imu_link,0.833899079352,0.519294266459,0.166349579326,-0.0852854485674,0.0025,0.0,0.0,0.0,0.0025,0.0,0.0,0.0,0.0025,0.17,0.46,0.36,0.02,0.0,0.0,0.0,0.02,0.0,0.0,0.0,0.02,3.064375,-0.167391484375,-7.18710851562,0.04,0.0,0.0,0.0,0.04,0.0,0.0,0.0,0.04
1597380897941249380,28376,1596774717363229036,imu_link,0.835082173759,0.516215528018,0.16759817705,-0.0898339732691,0.0025,0.0,0.0,0.0,0.0025,0.0,0.0,0.0,0.0025,0.17,0.31,0.28,0.02,0.0,0.0,0.0,0.02,0.0,0.0,0.0,0.02,3.5623359375,0.04290125,-7.14880382812,0.04,0.0,0.0,0.0,0.04,0.0,0.0,0.0,0.04
1597380897960882233,28377,1596774717383315086,imu_link,0.836270137312,0.513212490353,0.169481450516,-0.0924188028352,0.0025,0.0,0.0,0.0,0.0025,0.0,0.0,0.0,0.0025,0.07,0.13,0.23,0.02,0.0,0.0,0.0,0.02,0.0,0.0,0.0,0.02,3.97411132812,-0.105337890625,-7.07679101562,0.04,0.0,0.0,0.0,0.04,0.0,0.0,0.0,0.04
1597380897982594339,28378,1596774717404257059,imu_link,0.837614185101,0.510150947856,0.171416095771,-0.0936216290713,0.0025,0.0,0.0,0.0,0.0025,0.0,0.0,0.0,0.0025,-0.08,-0.08,0.16,0.02,0.0,0.0,0.0,0.02,0.0,0.0,0.0,0.02,4.05072070312,-0.1103175,-7.34492382812,0.04,0.0,0.0,0.0,0.04,0.0,0.0,0.0,0.04
1597380898002099154,28379,1596774717423449993,imu_link,0.838836393813,0.507964753548,0.172275477711,-0.0929864148484,0.0025,0.0,0.0,0.0,0.0025,0.0,0.0,0.0,0.0025,-0.16,-0.28,0.06,0.02,0.0,0.0,0.0,0.02,0.0,0.0,0.0,0.02,3.62936914062,0.469232421875,-8.43660742187,0.04,0.0,0.0,0.0,0.04,0.0,0.0,0.0,0.04
1597380898022144256,28380,1596774717443356990,imu_link,0.840322603924,0.506678048534,0.171256023751,-0.0883552533707,0.0025,0.0,0.0,0.0,0.0025,0.0,0.0,0.0,0.0025,-0.18,-0.36,0.04,0.02,0.0,0.0,0.0,0.02,0.0,0.0,0.0,0.02,3.43324914062,0.7277890625,-8.6185546875,0.04,0.0,0.0,0.0,0.04,0.0,0.0,0.0,0.04
1597380898041420293,28381,1596774717463285923,imu_link,0.841813886286,0.505775297648,0.169700243265,-0.082113071926,0.0025,0.0,0.0,0.0,0.0025,0.0,0.0,0.0,0.0025,-0.21,-0.39,0.07,0.02,0.0,0.0,0.0,0.02,0.0,0.0,0.0,0.02,2.97320984375,0.63202734375,-9.13566796875,0.04,0.0,0.0,0.0,0.04,0.0,0.0,0.0,0.04
1597380898061342523,28382,1596774717483066082,imu_link,0.84417610776,0.504282386155,0.165446081063,-0.0754557377613,0.0025,0.0,0.0,0.0,0.0025,0.0,0.0,0.0,0.0025,-0.19,-0.39,0.11,0.02,0.0,0.0,0.0,0.02,0.0,0.0,0.0,0.02,2.66217578125,0.70863671875,-9.7247940625,0.04,0.0,0.0,0.0,0.04,0.0,0.0,0.0,0.04
1597380898081665132,28383,1596774717503204107,imu_link,0.846353048247,0.503142497863,0.160510814575,-0.0690682486568,0.0025,0.0,0.0,0.0,0.0025,0.0,0.0,0.0,0.0025,-0.15,-0.26,0.14,0.02,0.0,0.0,0.0,0.02,0.0,0.0,0.0,0.02,2.77708984375,0.6174715625,-9.51411828125,0.04,0.0,0.0,0.0,0.04,0.0,0.0,0.0,0.04
1597380898101900964,28384,1596774717523169040,imu_link,0.847865159874,0.502226292155,0.157002422508,-0.0651433915815,0.0025,0.0,0.0,0.0,0.0025,0.0,0.0,0.0,0.0025,-0.08,-0.15,0.14,0.02,0.0,0.0,0.0,0.02,0.0,0.0,0.0,0.02,2.69090429687,0.775669921875,-9.48041015625,0.04,0.0,0.0,0.0,0.04,0.0,0.0,0.0,0.04
1597380898121515735,28385,1596774717543220996,imu_link,0.849338716615,0.500945387388,0.15431506566,-0.0621636857353,0.0025,0.0,0.0,0.0,0.0025,0.0,0.0,0.0,0.0025,0.02,-0.05,0.21,0.02,0.0,0.0,0.0,0.02,0.0,0.0,0.0,0.02,3.13140820312,0.679908203125,-8.89166710937,0.04,0.0,0.0,0.0,0.04,0.0,0.0,0.0,0.04
1597380898140681747,28386,1596774717563111066,imu_link,0.850703301188,0.498378244953,0.154851510091,-0.0628014978096,0.0025,0.0,0.0,0.0,0.0025,0.0,0.0,0.0,0.0025,0.1,0.07,0.3,0.02,0.0,0.0,0.0,0.02,0.0,0.0,0.0,0.02,3.73968664062,-0.17237109375,-8.4224346875,0.04,0.0,0.0,0.0,0.04,0.0,0.0,0.0,0.04
1597380898162663472,28387,1596774717583338975,imu_link,0.851720499297,0.495211607976,0.156649602122,-0.0692716143739,0.0025,0.0,0.0,0.0,0.0025,0.0,0.0,0.0,0.0025,0.16,0.16,0.28,0.02,0.0,0.0,0.0,0.02,0.0,0.0,0.0,0.02,4.37171398437,-0.8381065625,-7.61305664062,0.04,0.0,0.0,0.0,0.04,0.0,0.0,0.0,0.04
1597380898181399223,28388,1596774717603327989,imu_link,0.851794400785,0.492798182102,0.159465630627,-0.078530014374,0.0025,0.0,0.0,0.0,0.0025,0.0,0.0,0.0,0.0025,0.17,0.1,0.17,0.02,0.0,0.0,0.0,0.02,0.0,0.0,0.0,0.02,4.72603234375,-1.02465039062,-7.56057921875,0.04,0.0,0.0,0.0,0.04,0.0,0.0,0.0,0.04
1597380898201874095,28389,1596774717623204946,imu_link,0.851456116044,0.490591855573,0.163147030158,-0.0878928907671,0.0025,0.0,0.0,0.0,0.0025,0.0,0.0,0.0,0.0025,0.12,0.05,0.04,0.02,0.0,0.0,0.0,0.02,0.0,0.0,0.0,0.02,4.81221789062,-0.67492859375,-7.52687109375,0.04,0.0,0.0,0.0,0.04,0.0,0.0,0.0,0.04
1597380898221384566,28390,1596774717643182992,imu_link,0.850629406992,0.489380171102,0.16752374791,-0.094193704555,0.0025,0.0,0.0,0.0,0.0025,0.0,0.0,0.0,0.0025,0.03,-0.02,-0.03,0.02,0.0,0.0,0.0,0.02,0.0,0.0,0.0,0.02,4.75476085937,-0.354318359375,-7.62761242187,0.04,0.0,0.0,0.0,0.04,0.0,0.0,0.0,0.04
1597380898241940701,28391,1596774717663129091,imu_link,0.849811340863,0.488621786047,0.171843084149,-0.0976697986674,0.0025,0.0,0.0,0.0,0.0025,0.0,0.0,0.0,0.0025,-0.05,-0.08,-0.07,0.02,0.0,0.0,0.0,0.02,0.0,0.0,0.0,0.02,4.6685753125,0.143642578125,-7.4694140625,0.04,0.0,0.0,0.0,0.04,0.0,0.0,0.0,0.04
1597380898260989775,28392,1596774717683068037,imu_link,0.849251678789,0.488084499518,0.176069170773,-0.0976972594673,0.0025,0.0,0.0,0.0,0.0025,0.0,0.0,0.0,0.0025,-0.11,-0.18,-0.09,0.02,0.0,0.0,0.0,0.02,0.0,0.0,0.0,0.02,4.323833125,0.450080078125,-8.36957421875,0.04,0.0,0.0,0.0,0.04,0.0,0.0,0.0,0.04
1597380898280857760,28393,1596774717703036069,imu_link,0.848988583056,0.487934268362,0.179213372284,-0.0949794861688,0.0025,0.0,0.0,0.0,0.0025,0.0,0.0,0.0,0.0025,-0.15,-0.16,-0.11,0.02,0.0,0.0,0.0,0.02,0.0,0.0,0.0,0.02,4.0219921875,1.39812109375,-8.25466015625,0.04,0.0,0.0,0.0,0.04,0.0,0.0,0.0,0.04
1597380898301651470,28394,1596774717723052024,imu_link,0.848603954167,0.488354455773,0.183157238582,-0.0885137303168,0.0025,0.0,0.0,0.0,0.0025,0.0,0.0,0.0,0.0025,-0.14,-0.14,-0.05,0.02,0.0,0.0,0.0,0.02,0.0,0.0,0.0,0.02,3.72513085937,1.0342265625,-8.5419453125,0.04,0.0,0.0,0.0,0.04,0.0,0.0,0.0,0.04
1597380898320798422,28395,1596774717742948055,imu_link,0.84860908871,0.488726611869,0.184119875207,-0.0843136107815,0.0025,0.0,0.0,0.0,0.0025,0.0,0.0,0.0,0.0025,-0.01,-0.11,-0.05,0.02,0.0,0.0,0.0,0.02,0.0,0.0,0.0,0.02,3.7155546875,1.69996203125,-9.17895226562,0.04,0.0,0.0,0.0,0.04,0.0,0.0,0.0,0.04
1597380898340731822,28396,1596774717762881994,imu_link,0.848663958497,0.489067065318,0.185512576432,-0.0785364574867,0.0025,0.0,0.0,0.0,0.0025,0.0,0.0,0.0,0.0025,0.09,-0.03,0.07,0.02,0.0,0.0,0.0,0.02,0.0,0.0,0.0,0.02,3.72513085937,1.4509815625,-9.55242296875,0.04,0.0,0.0,0.0,0.04,0.0,0.0,0.0,0.04
1597380898361445596,28397,1596774717782867908,imu_link,0.84944442697,0.487958441081,0.186049050903,-0.0756734823142,0.0025,0.0,0.0,0.0,0.0025,0.0,0.0,0.0,0.0025,0.15,0.08,0.2,0.02,0.0,0.0,0.0,0.02,0.0,0.0,0.0,0.02,4.00283984375,0.74694140625,-10.0837089844,0.04,0.0,0.0,0.0,0.04,0.0,0.0,0.0,0.04
1597380898381236856,28398,1596774717802889108,imu_link,0.850815974159,0.485208128918,0.186339848425,-0.0772185899647,0.0025,0.0,0.0,0.0,0.0025,0.0,0.0,0.0,0.0025,0.16,0.23,0.29,0.02,0.0,0.0,0.0,0.02,0.0,0.0,0.0,0.02,4.3284296875,-0.4213515625,-9.89678210937,0.04,0.0,0.0,0.0,0.04,0.0,0.0,0.0,0.04
1597380898402289714,28399,1596774717822818994,imu_link,0.851939798079,0.482039861751,0.186488850841,-0.0840122648494,0.0025,0.0,0.0,0.0,0.0025,0.0,0.0,0.0,0.0025,0.17,0.34,0.26,0.02,0.0,0.0,0.0,0.02,0.0,0.0,0.0,0.02,4.60154210937,-1.16829296875,-9.70066210937,0.04,0.0,0.0,0.0,0.04,0.0,0.0,0.0,0.04
1597380898420964239,28400,1596774717842904090,imu_link,0.852844585994,0.478643824214,0.186910237402,-0.0928480739564,0.0025,0.0,0.0,0.0,0.0025,0.0,0.0,0.0,0.0025,0.11,0.35,0.18,0.02,0.0,0.0,0.0,0.02,0.0,0.0,0.0,0.02,4.88882726562,-1.47971007812,-10.0500008594,0.04,0.0,0.0,0.0,0.04,0.0,0.0,0.0,0.04
1597380898440754521,28401,1596774717862849950,imu_link,0.853348054401,0.475971920309,0.187332850715,-0.100768210116,0.0025,0.0,0.0,0.0,0.0025,0.0,0.0,0.0,0.0025,0.06,0.33,0.1,0.02,0.0,0.0,0.0,0.02,0.0,0.0,0.0,0.02,5.11827234375,-1.20659765625,-10.2273515625,0.04,0.0,0.0,0.0,0.04,0.0,0.0,0.0,0.04
1597380898461990918,28402,1596774717883816003,imu_link,-0.853406548242,-0.474218302609,-0.188056061187,0.107000853921,0.0025,0.0,0.0,0.0,0.0025,0.0,0.0,0.0,0.0025,0.11,0.26,0.03,0.02,0.0,0.0,0.0,0.02,0.0,0.0,0.0,0.02,5.70241882812,-1.33108789062,-10.7969422656,0.04,0.0,0.0,0.0,0.04,0.0,0.0,0.0,0.04
1597380898481964391,28403,1596774717903757095,imu_link,-0.852466639604,-0.47375920529,-0.190428468028,0.112204466622,0.0025,0.0,0.0,0.0,0.0025,0.0,0.0,0.0,0.0025,0.08,0.34,-0.14,0.02,0.0,0.0,0.0,0.02,0.0,0.0,0.0,0.02,5.34350390625,-0.90016015625,-10.801921875,0.04,0.0,0.0,0.0,0.04,0.0,0.0,0.0,0.04
1597380898502821073,28404,1596774717923700094,imu_link,-0.851415003104,-0.474109915579,-0.19242308022,0.115263344731,0.0025,0.0,0.0,0.0,0.0025,0.0,0.0,0.0,0.0025,0.04,0.31,-0.21,0.02,0.0,0.0,0.0,0.02,0.0,0.0,0.0,0.02,5.31937195312,-0.143642578125,-10.3660145312,0.04,0.0,0.0,0.0,0.04,0.0,0.0,0.0,0.04
1597380898520666285,28405,1596774717942790031,imu_link,-0.850621184532,-0.474420584841,-0.195016326059,0.115487409158,0.0025,0.0,0.0,0.0,0.0025,0.0,0.0,0.0,0.0025,-0.01,0.18,-0.2,0.02,0.0,0.0,0.0,0.02,0.0,0.0,0.0,0.02,5.33392773437,0.63662390625,-10.5816699219,0.04,0.0,0.0,0.0,0.04,0.0,0.0,0.0,0.04
1597380898541464812,28406,1596774717962881088,imu_link,-0.850541492417,-0.47415150956,-0.197927986368,0.112178553527,0.0025,0.0,0.0,0.0,0.0025,0.0,0.0,0.0,0.0025,-0.14,0.09,-0.09,0.02,0.0,0.0,0.0,0.02,0.0,0.0,0.0,0.02,4.71645617187,0.70863671875,-10.4092988281,0.04,0.0,0.0,0.0,0.04,0.0,0.0,0.0,0.04
1597380898560583071,28407,1596774717982707023,imu_link,0.851542086159,0.473194611341,0.199138335479,-0.10633371356,0.0025,0.0,0.0,0.0,0.0025,0.0,0.0,0.0,0.0025,-0.27,-0.03,-0.01,0.02,0.0,0.0,0.0,0.02,0.0,0.0,0.0,0.02,3.12183203125,0.67033203125,-10.8881074219,0.04,0.0,0.0,0.0,0.04,0.0,0.0,0.0,0.04
1597380898581444640,28408,1596774718002650976,imu_link,0.853851881175,0.471916593148,0.196429060996,-0.098220762175,0.0025,0.0,0.0,0.0,0.0025,0.0,0.0,0.0,0.0025,-0.36,0.09,0.08,0.02,0.0,0.0,0.0,0.02,0.0,0.0,0.0,0.02,1.7574190625,-0.033708125,-11.0892070312,0.04,0.0,0.0,0.0,0.04,0.0,0.0,0.0,0.04
1597380898600911268,28409,1596774718022598028,imu_link,0.856413338438,0.470780988973,0.190628848174,-0.0926396049791,0.0025,0.0,0.0,0.0,0.0025,0.0,0.0,0.0,0.0025,-0.27,0.4,0.07,0.02,0.0,0.0,0.0,0.02,0.0,0.0,0.0,0.02,1.55133984375,-0.05286046875,-10.0978817187,0.04,0.0,0.0,0.0,0.04,0.0,0.0,0.0,0.04
1597380898621564863,28410,1596774718043030977,imu_link,0.858656615771,0.470096232053,0.183839406755,-0.089002366968,0.0025,0.0,0.0,0.0,0.0025,0.0,0.0,0.0,0.0025,-0.11,0.57,0.07,0.02,0.0,0.0,0.0,0.02,0.0,0.0,0.0,0.02,2.19294335937,-0.51251671875,-8.16387804687,0.04,0.0,0.0,0.0,0.04,0.0,0.0,0.0,0.04
1597380898640881252,28411,1596774718062849044,imu_link,0.859163054409,0.469586708926,0.182053112923,-0.0904645389825,0.0025,0.0,0.0,0.0,0.0025,0.0,0.0,0.0,0.0025,0.0,0.42,-0.07,0.02,0.0,0.0,0.0,0.02,0.0,0.0,0.0,0.02,2.1450625,-0.388026484375,-8.24048742187,0.04,0.0,0.0,0.0,0.04,0.0,0.0,0.0,0.04
1597380898660105278,28412,1596774718082525014,imu_link,0.859135625153,0.470139336292,0.180326214897,-0.0913095738964,0.0025,0.0,0.0,0.0,0.0025,0.0,0.0,0.0,0.0025,0.01,0.42,-0.14,0.02,0.0,0.0,0.0,0.02,0.0,0.0,0.0,0.02,2.3702940625,0.220251953125,-6.69374414062,0.04,0.0,0.0,0.0,0.04,0.0,0.0,0.0,0.04
1597380898681100540,28413,1596774718102699995,imu_link,0.858884408631,0.470442652444,0.180865120932,-0.091044447399,0.0025,0.0,0.0,0.0,0.0025,0.0,0.0,0.0,0.0025,0.04,0.18,-0.11,0.02,0.0,0.0,0.0,0.02,0.0,0.0,0.0,0.02,3.18886523437,0.6082784375,-5.97055164062,0.04,0.0,0.0,0.0,0.04,0.0,0.0,0.0,0.04
1597380898701251548,28414,1596774718122595071,imu_link,0.858528574013,0.471351516992,0.181086074766,-0.0892427507351,0.0025,0.0,0.0,0.0,0.0025,0.0,0.0,0.0,0.0025,-0.01,-0.15,-0.15,0.02,0.0,0.0,0.0,0.02,0.0,0.0,0.0,0.02,3.30377929687,1.01047765625,-7.23000976562,0.04,0.0,0.0,0.0,0.04,0.0,0.0,0.0,0.04
1597380898720422237,28415,1596774718142735004,imu_link,0.858182236847,0.47262112324,0.181784229304,-0.0843031209629,0.0025,0.0,0.0,0.0,0.0025,0.0,0.0,0.0,0.0025,-0.13,-0.2,-0.16,0.02,0.0,0.0,0.0,0.02,0.0,0.0,0.0,0.02,3.12681164062,1.68540625,-6.83738671875,0.04,0.0,0.0,0.0,0.04,0.0,0.0,0.0,0.04
1597380898741410866,28416,1596774718162544012,imu_link,0.858490192739,0.473420780857,0.180966259692,-0.0782212635875,0.0025,0.0,0.0,0.0,0.0025,0.0,0.0,0.0,0.0025,-0.03,-0.4,-0.03,0.02,0.0,0.0,0.0,0.02,0.0,0.0,0.0,0.02,3.29918273437,1.21617382812,-7.43608898437,0.04,0.0,0.0,0.0,0.04,0.0,0.0,0.0,0.04
1597380898760742405,28417,1596774718182708024,imu_link,0.859174211933,0.473757322777,0.178842158335,-0.0734108647746,0.0025,0.0,0.0,0.0,0.0025,0.0,0.0,0.0,0.0025,0.02,-0.46,0.02,0.02,0.0,0.0,0.0,0.02,0.0,0.0,0.0,0.02,3.62936914062,0.28728515625,-7.75210265625,0.04,0.0,0.0,0.0,0.04,0.0,0.0,0.0,0.04
1597380898782205765,28418,1596774718202966928,imu_link,0.860315170239,0.473351532887,0.175419005496,-0.0708823439287,0.0025,0.0,0.0,0.0,0.0025,0.0,0.0,0.0,0.0025,-0.06,-0.57,0.01,0.02,0.0,0.0,0.0,0.02,0.0,0.0,0.0,0.02,3.77799132812,-0.407178828125,-8.74802453125,0.04,0.0,0.0,0.0,0.04,0.0,0.0,0.0,0.04
1597380898801161917,28419,1596774718222640037,imu_link,0.861634314346,0.472876527226,0.170300707801,-0.0705107599009,0.0025,0.0,0.0,0.0,0.0025,0.0,0.0,0.0,0.0025,-0.17,-0.58,-0.04,0.02,0.0,0.0,0.0,0.02,0.0,0.0,0.0,0.02,4.00781945312,-0.51251671875,-9.27471398437,0.04,0.0,0.0,0.0,0.04,0.0,0.0,0.0,0.04
1597380898820476491,28420,1596774718242463111,imu_link,0.862125996398,0.473206656041,0.166836878218,-0.0705668695616,0.0025,0.0,0.0,0.0,0.0025,0.0,0.0,0.0,0.0025,-0.22,-0.47,-0.15,0.02,0.0,0.0,0.0,0.02,0.0,0.0,0.0,0.02,3.5623359375,0.1578153125,-9.02573351562,0.04,0.0,0.0,0.0,0.04,0.0,0.0,0.0,0.04
1597380898840790863,28421,1596774718262392044,imu_link,0.862115825353,0.47452902742,0.164505317473,-0.0672049576624,0.0025,0.0,0.0,0.0,0.0025,0.0,0.0,0.0,0.0025,-0.25,-0.41,-0.17,0.02,0.0,0.0,0.0,0.02,0.0,0.0,0.0,0.02,3.55275976562,1.259458125,-9.06403820312,0.04,0.0,0.0,0.0,0.04,0.0,0.0,0.0,0.04
1597380898861357959,28422,1596774718282553911,imu_link,0.862092186699,0.475228323024,0.165222598186,-0.0604697914424,0.0025,0.0,0.0,0.0,0.0025,0.0,0.0,0.0,0.0025,-0.17,-0.32,-0.02,0.02,0.0,0.0,0.0,0.02,0.0,0.0,0.0,0.02,3.65350109375,1.106239375,-8.50862023437,0.04,0.0,0.0,0.0,0.04,0.0,0.0,0.0,0.04
1597380898880933356,28423,1596774718302444934,imu_link,0.862394156507,0.474855242102,0.165936552184,-0.0570427779895,0.0025,0.0,0.0,0.0,0.0025,0.0,0.0,0.0,0.0025,-0.06,-0.32,0.1,0.02,0.0,0.0,0.0,0.02,0.0,0.0,0.0,0.02,4.11315734375,0.493364375,-8.97287304687,0.04,0.0,0.0,0.0,0.04,0.0,0.0,0.0,0.04
1597380898900765527,28424,1596774718322333097,imu_link,0.862741356396,0.473543811327,0.167406794643,-0.0583830097367,0.0025,0.0,0.0,0.0,0.0025,0.0,0.0,0.0,0.0025,-0.0,-0.19,0.11,0.02,0.0,0.0,0.0,0.02,0.0,0.0,0.0,0.02,4.1752109375,0.20607921875,-8.66643554687,0.04,0.0,0.0,0.0,0.04,0.0,0.0,0.0,0.04
1597380898919927070,28425,1596774718342231035,imu_link,0.862998942347,0.47216540185,0.168410288084,-0.062694765892,0.0025,0.0,0.0,0.0,0.0025,0.0,0.0,0.0,0.0025,0.14,-0.14,0.14,0.02,0.0,0.0,0.0,0.02,0.0,0.0,0.0,0.02,4.3284296875,-0.2681328125,-8.33126953125,0.04,0.0,0.0,0.0,0.04,0.0,0.0,0.0,0.04
1597380898940764414,28426,1596774718362343072,imu_link,0.863238989474,0.470777087083,0.168251244912,-0.0698491224989,0.0025,0.0,0.0,0.0,0.0025,0.0,0.0,0.0,0.0025,0.27,-0.19,0.16,0.02,0.0,0.0,0.0,0.02,0.0,0.0,0.0,0.02,4.2855284375,-1.23532617187,-8.4653359375,0.04,0.0,0.0,0.0,0.04,0.0,0.0,0.0,0.04
1597380898961763585,28427,1596774718382505893,imu_link,0.863512405221,0.46949320918,0.16592561291,-0.0799446279857,0.0025,0.0,0.0,0.0,0.0025,0.0,0.0,0.0,0.0025,0.22,-0.19,0.07,0.02,0.0,0.0,0.0,0.02,0.0,0.0,0.0,0.02,3.7921640625,-0.756517578125,-9.380051875,0.04,0.0,0.0,0.0,0.04,0.0,0.0,0.0,0.04
1597380898981019865,28428,1596774718402508974,imu_link,0.864008325766,0.46872948402,0.162803092359,-0.0853078949228,0.0025,0.0,0.0,0.0,0.0025,0.0,0.0,0.0,0.0025,0.16,-0.06,0.08,0.02,0.0,0.0,0.0,0.02,0.0,0.0,0.0,0.02,3.5194346875,-0.871431640625,-8.82463390625,0.04,0.0,0.0,0.0,0.04,0.0,0.0,0.0,0.04
1597380899000373604,28429,1596774718422261953,imu_link,-0.864447238238,-0.468149948808,-0.159459427209,0.0902180071119,0.0025,0.0,0.0,0.0,0.0025,0.0,0.0,0.0,0.0025,0.15,-0.09,0.05,0.02,0.0,0.0,0.0,0.02,0.0,0.0,0.0,0.02,3.66307726562,-0.526689453125,-9.79182726562,0.04,0.0,0.0,0.0,0.04,0.0,0.0,0.0,0.04
1597380899020013788,28430,1596774718442379951,imu_link,-0.864660296136,-0.467675326699,-0.157695325345,0.0936725437219,0.0025,0.0,0.0,0.0,0.0025,0.0,0.0,0.0,0.0025,0.2,0.09,0.04,0.02,0.0,0.0,0.0,0.02,0.0,0.0,0.0,0.02,3.89750195312,-0.17696765625,-9.51411828125,0.04,0.0,0.0,0.0,0.04,0.0,0.0,0.0,0.04
1597380899040181202,28431,1596774718462363958,imu_link,-0.864325164732,-0.467276728303,-0.158966053427,0.0965622216754,0.0025,0.0,0.0,0.0,0.0025,0.0,0.0,0.0,0.0025,0.18,0.19,0.07,0.02,0.0,0.0,0.0,0.02,0.0,0.0,0.0,0.02,4.0219921875,-0.603298828125,-9.95921875,0.04,0.0,0.0,0.0,0.04,0.0,0.0,0.0,0.04
1597380899059646503,28432,1596774718482203006,imu_link,-0.864440064125,-0.465944689525,-0.160340830021,0.0996480811024,0.0025,0.0,0.0,0.0,0.0025,0.0,0.0,0.0,0.0025,0.04,0.25,0.06,0.02,0.0,0.0,0.0,0.02,0.0,0.0,0.0,0.02,4.24722375,-0.81895421875,-10.6582792969,0.04,0.0,0.0,0.0,0.04,0.0,0.0,0.0,0.04
1597380899080983432,28433,1596774718502348899,imu_link,-0.864189584355,-0.465143473925,-0.162312969965,0.102334797294,0.0025,0.0,0.0,0.0,0.0025,0.0,0.0,0.0,0.0025,-0.03,0.33,-0.0,0.02,0.0,0.0,0.0,0.02,0.0,0.0,0.0,0.02,3.61519640625,-0.679908203125,-9.193125,0.04,0.0,0.0,0.0,0.04,0.0,0.0,0.0,0.04
1597380899101549062,28434,1596774718522212028,imu_link,-0.86429250748,-0.464783726355,-0.161647201124,0.104138041068,0.0025,0.0,0.0,0.0,0.0025,0.0,0.0,0.0,0.0025,0.02,0.11,-0.08,0.02,0.0,0.0,0.0,0.02,0.0,0.0,0.0,0.02,3.34706359375,0.8381065625,-10.7394852344,0.04,0.0,0.0,0.0,0.04,0.0,0.0,0.0,0.04
1597380899120382342,28435,1596774718542254924,imu_link,-0.864289283382,-0.465680805197,-0.161103771911,0.100950467943,0.0025,0.0,0.0,0.0,0.0025,0.0,0.0,0.0,0.0025,0.18,0.17,0.01,0.02,0.0,0.0,0.0,0.02,0.0,0.0,0.0,0.02,4.44334375,1.88190929687,-10.5862664844,0.04,0.0,0.0,0.0,0.04,0.0,0.0,0.0,0.04
1597380899140532303,28436,1596774718562177896,imu_link,-0.864262252786,-0.464940980446,-0.16481230963,0.0985776125965,0.0025,0.0,0.0,0.0,0.0025,0.0,0.0,0.0,0.0025,0.3,0.18,0.21,0.02,0.0,0.0,0.0,0.02,0.0,0.0,0.0,0.02,4.70688,1.18284875,-10.5146367187,0.04,0.0,0.0,0.0,0.04,0.0,0.0,0.0,0.04
1597380899159593176,28437,1596774718582246065,imu_link,-0.865213269763,-0.462650178636,-0.166582711419,0.0980357602603,0.0025,0.0,0.0,0.0,0.0025,0.0,0.0,0.0,0.0025,0.28,0.02,0.34,0.02,0.0,0.0,0.0,0.02,0.0,0.0,0.0,0.02,5.84146484375,1.29278320312,-10.9168359375,0.04,0.0,0.0,0.0,0.04,0.0,0.0,0.0,0.04
1597380899180797877,28438,1596774718602488040,imu_link,-0.866348981082,-0.459174704287,-0.169632446157,0.0991103785267,0.0025,0.0,0.0,0.0,0.0025,0.0,0.0,0.0,0.0025,0.23,0.05,0.46,0.02,0.0,0.0,0.0,0.02,0.0,0.0,0.0,0.02,5.14240429687,-1.05835851562,-10.385166875,0.04,0.0,0.0,0.0,0.04,0.0,0.0,0.0,0.04
1597380899201475139,28439,1596774718622363090,imu_link,-0.867658241491,-0.456000458392,-0.168493699666,0.104127955379,0.0025,0.0,0.0,0.0,0.0025,0.0,0.0,0.0,0.0025,0.2,-0.08,0.27,0.02,0.0,0.0,0.0,0.02,0.0,0.0,0.0,0.02,3.42826953125,-2.31283703125,-11.1658164062,0.04,0.0,0.0,0.0,0.04,0.0,0.0,0.0,0.04
1597380899221491757,28440,1596774718642321109,imu_link,-0.86912974551,-0.454861230009,-0.162285951404,0.106667787461,0.0025,0.0,0.0,0.0,0.0025,0.0,0.0,0.0,0.0025,-0.05,-0.06,-0.01,0.02,0.0,0.0,0.0,0.02,0.0,0.0,0.0,0.02,1.39352453125,-0.9147159375,-12.4777519531,0.04,0.0,0.0,0.0,0.04,0.0,0.0,0.0,0.04
1597380899242070093,28441,1596774718662153959,imu_link,-0.870265444213,-0.454814008423,-0.157915124529,0.104139751273,0.0025,0.0,0.0,0.0,0.0025,0.0,0.0,0.0,0.0025,-0.09,0.29,-0.04,0.02,0.0,0.0,0.0,0.02,0.0,0.0,0.0,0.02,0.967193359375,0.584146484375,-10.57209375,0.04,0.0,0.0,0.0,0.04,0.0,0.0,0.0,0.04
1597380899259852193,28442,1596774718682054042,imu_link,-0.872141181016,-0.45491415773,-0.151564420335,0.0972167473309,0.0025,0.0,0.0,0.0,0.0025,0.0,0.0,0.0,0.0025,0.1,0.43,0.11,0.02,0.0,0.0,0.0,0.02,0.0,0.0,0.0,0.02,2.50397742188,-0.2681328125,-9.5378671875,0.04,0.0,0.0,0.0,0.04,0.0,0.0,0.0,0.04
1597380899280852481,28443,1596774718702217102,imu_link,-0.87216103681,-0.455095484762,-0.150326734801,0.0981075859681,0.0025,0.0,0.0,0.0,0.0025,0.0,0.0,0.0,0.0025,0.19,0.49,-0.03,0.02,0.0,0.0,0.0,0.02,0.0,0.0,0.0,0.02,2.47065234375,-0.756517578125,-8.33624914062,0.04,0.0,0.0,0.0,0.04,0.0,0.0,0.0,0.04
1597380899300473606,28444,1596774718722227096,imu_link,-0.871089332543,-0.456480447234,-0.150460152363,0.100949089018,0.0025,0.0,0.0,0.0,0.0025,0.0,0.0,0.0,0.0025,0.12,0.42,-0.22,0.02,0.0,0.0,0.0,0.02,0.0,0.0,0.0,0.02,2.32700976562,0.100741328125,-6.89484375,0.04,0.0,0.0,0.0,0.04,0.0,0.0,0.0,0.04
1597380899320922298,28445,1596774718742180109,imu_link,-0.869604146578,-0.458830880623,-0.151244423929,0.101921418116,0.0025,0.0,0.0,0.0,0.0025,0.0,0.0,0.0,0.0025,0.22,0.2,-0.28,0.02,0.0,0.0,0.0,0.02,0.0,0.0,0.0,0.02,2.61889148437,0.564994140625,-7.45026171875,0.04,0.0,0.0,0.0,0.04,0.0,0.0,0.0,0.04
1597380899340463766,28446,1596774718762119054,imu_link,-0.868040046459,-0.461704486205,-0.151827779026,0.101408927998,0.0025,0.0,0.0,0.0,0.0025,0.0,0.0,0.0,0.0025,0.27,0.12,-0.26,0.02,0.0,0.0,0.0,0.02,0.0,0.0,0.0,0.02,3.28003039062,0.167391484375,-7.55100304687,0.04,0.0,0.0,0.0,0.04,0.0,0.0,0.0,0.04
1597380899360696596,28447,1596774718782093048,imu_link,-0.866147474349,-0.464623960729,-0.153612532969,0.101569274442,0.0025,0.0,0.0,0.0,0.0025,0.0,0.0,0.0,0.0025,0.18,0.06,-0.34,0.02,0.0,0.0,0.0,0.02,0.0,0.0,0.0,0.02,3.21759375,-0.507537109375,-6.928551875,0.04,0.0,0.0,0.0,0.04,0.0,0.0,0.0,0.04
1597380899380226544,28448,1596774718802017927,imu_link,-0.864200231763,-0.468309136616,-0.153107186667,0.101993633982,0.0025,0.0,0.0,0.0,0.0025,0.0,0.0,0.0,0.0025,0.1,-0.15,-0.48,0.02,0.0,0.0,0.0,0.02,0.0,0.0,0.0,0.02,3.35166015625,-0.253960078125,-7.79500390625,0.04,0.0,0.0,0.0,0.04,0.0,0.0,0.0,0.04
1597380899400574007,28449,1596774718822005987,imu_link,-0.861813791928,-0.47294862354,-0.152981728678,0.100961270919,0.0025,0.0,0.0,0.0,0.0025,0.0,0.0,0.0,0.0025,0.05,-0.16,-0.56,0.02,0.0,0.0,0.0,0.02,0.0,0.0,0.0,0.02,3.30875890625,0.220251953125,-6.86611523437,0.04,0.0,0.0,0.0,0.04,0.0,0.0,0.0,0.04
1597380899421814663,28450,1596774718842916011,imu_link,-0.859906167735,-0.477027567251,-0.152913206534,0.0981001225287,0.0025,0.0,0.0,0.0,0.0025,0.0,0.0,0.0,0.0025,-0.01,-0.31,-0.49,0.02,0.0,0.0,0.0,0.02,0.0,0.0,0.0,0.02,3.70597851562,0.584146484375,-7.32117492187,0.04,0.0,0.0,0.0,0.04,0.0,0.0,0.0,0.04
1597380899440752384,28451,1596774718862154960,imu_link,-0.858637641375,-0.480121728767,-0.153591694224,0.0929199539688,0.0025,0.0,0.0,0.0,0.0025,0.0,0.0,0.0,0.0025,-0.14,-0.47,-0.34,0.02,0.0,0.0,0.0,0.02,0.0,0.0,0.0,0.02,3.56731554687,0.373470703125,-6.73204882812,0.04,0.0,0.0,0.0,0.04,0.0,0.0,0.0,0.04
1597380899459642633,28452,1596774718882056951,imu_link,-0.858283510997,-0.482558208531,-0.151209947445,0.0873071699391,0.0025,0.0,0.0,0.0,0.0025,0.0,0.0,0.0,0.0025,-0.19,-0.74,-0.27,0.02,0.0,0.0,0.0,0.02,0.0,0.0,0.0,0.02,3.05939539062,0.641603515625,-8.85795898437,0.04,0.0,0.0,0.0,0.04,0.0,0.0,0.0,0.04
1597380899481544282,28453,1596774718902797937,imu_link,0.857998477108,0.485255901305,0.147735252403,-0.0808679091287,0.0025,0.0,0.0,0.0,0.0025,0.0,0.0,0.0,0.0025,-0.03,-0.52,-0.19,0.02,0.0,0.0,0.0,0.02,0.0,0.0,0.0,0.02,3.07395117187,0.469232421875,-9.62903234375,0.04,0.0,0.0,0.0,0.04,0.0,0.0,0.0,0.04
1597380899501344687,28454,1596774718921797037,imu_link,0.857355694666,0.487822273507,0.144484895765,-0.0780689258976,0.0025,0.0,0.0,0.0,0.0025,0.0,0.0,0.0,0.0025,0.16,-0.25,-0.18,0.02,0.0,0.0,0.0,0.02,0.0,0.0,0.0,0.02,3.1792890625,0.335166015625,-9.16439648437,0.04,0.0,0.0,0.0,0.04,0.0,0.0,0.0,0.04
1597380899520697030,28455,1596774718941843986,imu_link,0.856465961825,0.489814659165,0.143151286313,-0.0778162266485,0.0025,0.0,0.0,0.0,0.0025,0.0,0.0,0.0,0.0025,0.21,-0.13,-0.15,0.02,0.0,0.0,0.0,0.02,0.0,0.0,0.0,0.02,3.49070617187,0.526689453125,-9.48998632812,0.04,0.0,0.0,0.0,0.04,0.0,0.0,0.0,0.04
1597380899540315851,28456,1596774718961865901,imu_link,0.855608750451,0.490939224249,0.143926897866,-0.0787235181912,0.0025,0.0,0.0,0.0,0.0025,0.0,0.0,0.0,0.0025,0.28,0.02,-0.02,0.02,0.0,0.0,0.0,0.02,0.0,0.0,0.0,0.02,3.710958125,-0.39760265625,-9.29846289062,0.04,0.0,0.0,0.0,0.04,0.0,0.0,0.0,0.04
1597380899559651648,28457,1596774718981741905,imu_link,-0.854862364693,-0.491144164098,-0.144134332732,0.0849296275222,0.0025,0.0,0.0,0.0,0.0025,0.0,0.0,0.0,0.0025,0.31,0.11,-0.04,0.02,0.0,0.0,0.0,0.02,0.0,0.0,0.0,0.02,4.13690625,-0.85725890625,-8.47031554687,0.04,0.0,0.0,0.0,0.04,0.0,0.0,0.0,0.04
1597380899581406689,28458,1596774719002033948,imu_link,-0.853366793837,-0.491937037991,-0.145666401961,0.0924357353457,0.0025,0.0,0.0,0.0,0.0025,0.0,0.0,0.0,0.0025,0.22,0.01,-0.15,0.02,0.0,0.0,0.0,0.02,0.0,0.0,0.0,0.02,4.12733007812,-0.40219921875,-9.54744335937,0.04,0.0,0.0,0.0,0.04,0.0,0.0,0.0,0.04
1597380899600490739,28459,1596774719021907091,imu_link,-0.851659980499,-0.493375926148,-0.148414486283,0.0960656721977,0.0025,0.0,0.0,0.0,0.0025,0.0,0.0,0.0,0.0025,0.11,0.15,-0.19,0.02,0.0,0.0,0.0,0.02,0.0,0.0,0.0,0.02,4.05072070312,-0.541245234375,-8.40787890625,0.04,0.0,0.0,0.0,0.04,0.0,0.0,0.0,0.04
1597380899620857052,28460,1596774719042437076,imu_link,-0.849575849087,-0.495035035457,-0.151961522048,0.100343839545,0.0025,0.0,0.0,0.0,0.0025,0.0,0.0,0.0,0.0025,0.07,0.15,-0.26,0.02,0.0,0.0,0.0,0.02,0.0,0.0,0.0,0.02,4.28054882812,-0.028728515625,-8.3887265625,0.04,0.0,0.0,0.0,0.04,0.0,0.0,0.0,0.04
1597380899640175187,28461,1596774719061727046,imu_link,-0.847067978832,-0.497456429795,-0.156331078738,0.102827688455,0.0025,0.0,0.0,0.0,0.0025,0.0,0.0,0.0,0.0025,0.14,0.05,-0.3,0.02,0.0,0.0,0.0,0.02,0.0,0.0,0.0,0.02,4.60613867187,0.124490234375,-9.31761523437,0.04,0.0,0.0,0.0,0.04,0.0,0.0,0.0,0.04
1597380899660489977,28462,1596774719081813097,imu_link,-0.844600560607,-0.499751923473,-0.161194491158,0.104471259338,0.0025,0.0,0.0,0.0,0.0025,0.0,0.0,0.0,0.0025,0.12,0.14,-0.32,0.02,0.0,0.0,0.0,0.02,0.0,0.0,0.0,0.02,4.45789953125,0.349721796875,-9.2651378125,0.04,0.0,0.0,0.0,0.04,0.0,0.0,0.0,0.04
1597380899683214377,28463,1596774719102751970,imu_link,-0.84202834694,-0.501958332944,-0.167112623172,0.105354003787,0.0025,0.0,0.0,0.0,0.0025,0.0,0.0,0.0,0.0025,0.09,0.29,-0.3,0.02,0.0,0.0,0.0,0.02,0.0,0.0,0.0,0.02,4.366734375,-0.04290125,-9.36089953125,0.04,0.0,0.0,0.0,0.04,0.0,0.0,0.0,0.04
1597380899700567823,28464,1596774719121685981,imu_link,-0.839779911847,-0.503686603653,-0.171740604281,0.107585639378,0.0025,0.0,0.0,0.0,0.0025,0.0,0.0,0.0,0.0025,0.07,0.36,-0.32,0.02,0.0,0.0,0.0,0.02,0.0,0.0,0.0,0.02,4.25679992187,-0.1578153125,-9.269734375,0.04,0.0,0.0,0.0,0.04,0.0,0.0,0.0,0.04
1597380899720411094,28465,1596774719141549110,imu_link,-0.837609309973,-0.505601653801,-0.175404497038,0.109594132773,0.0025,0.0,0.0,0.0,0.0025,0.0,0.0,0.0,0.0025,0.05,0.34,-0.35,0.02,0.0,0.0,0.0,0.02,0.0,0.0,0.0,0.02,4.29510460937,-0.076609375,-9.8872059375,0.04,0.0,0.0,0.0,0.04,0.0,0.0,0.0,0.04
1597380899739985793,28466,1596774719161942005,imu_link,-0.835631547451,-0.507573964696,-0.178266978175,0.110948058837,0.0025,0.0,0.0,0.0,0.0025,0.0,0.0,0.0,0.0025,0.06,0.38,-0.34,0.02,0.0,0.0,0.0,0.02,0.0,0.0,0.0,0.02,3.85919726562,-0.28268859375,-10.2081992187,0.04,0.0,0.0,0.0,0.04,0.0,0.0,0.0,0.04
1597380899761607909,28467,1596774719182574987,imu_link,-0.833844031056,-0.509901844969,-0.178749726538,0.112928187942,0.0025,0.0,0.0,0.0,0.0025,0.0,0.0,0.0,0.0025,0.15,0.44,-0.34,0.02,0.0,0.0,0.0,0.02,0.0,0.0,0.0,0.02,4.56323742187,-0.4550596875,-10.3277098438,0.04,0.0,0.0,0.0,0.04,0.0,0.0,0.0,0.04
1597380899783088094,28468,1596774719202661991,imu_link,-0.831168035895,-0.512747746818,-0.180252738051,0.117296183501,0.0025,0.0,0.0,0.0,0.0025,0.0,0.0,0.0,0.0025,0.29,0.43,-0.45,0.02,0.0,0.0,0.0,0.02,0.0,0.0,0.0,0.02,4.86967492187,-0.340145625,-9.85388085937,0.04,0.0,0.0,0.0,0.04,0.0,0.0,0.0,0.04
1597380899800012188,28469,1596774719221566915,imu_link,-0.828250664698,-0.516184771799,-0.181653989627,0.120648024607,0.0025,0.0,0.0,0.0,0.0025,0.0,0.0,0.0,0.0025,0.27,0.21,-0.5,0.02,0.0,0.0,0.0,0.02,0.0,0.0,0.0,0.02,4.92215234375,0.65577625,-11.4339492187,0.04,0.0,0.0,0.0,0.04,0.0,0.0,0.0,0.04
1597380899820604626,28470,1596774719241719961,imu_link,-0.826535928473,-0.518704495156,-0.183370836742,0.118992192522,0.0025,0.0,0.0,0.0,0.0025,0.0,0.0,0.0,0.0025,0.08,0.19,-0.36,0.02,0.0,0.0,0.0,0.02,0.0,0.0,0.0,0.02,4.93172851562,1.106239375,-11.108359375,0.04,0.0,0.0,0.0,0.04,0.0,0.0,0.0,0.04
1597380899839799750,28471,1596774719261502027,imu_link,0.825699772592,0.519722080906,0.186099087389,-0.116086062186,0.0025,0.0,0.0,0.0,0.0025,0.0,0.0,0.0,0.0025,0.0,0.17,-0.19,0.02,0.0,0.0,0.0,0.02,0.0,0.0,0.0,0.02,4.25679992187,0.953020625,-11.2807304687,0.04,0.0,0.0,0.0,0.04,0.0,0.0,0.0,0.04
1597380899859198169,28472,1596774719281601905,imu_link,0.825990143844,0.519313121415,0.187909910161,-0.112889458601,0.0025,0.0,0.0,0.0,0.0025,0.0,0.0,0.0,0.0025,-0.08,0.28,-0.0,0.02,0.0,0.0,0.0,0.02,0.0,0.0,0.0,0.02,3.43324914062,0.32558984375,-9.84890125,0.04,0.0,0.0,0.0,0.04,0.0,0.0,0.0,0.04
1597380899880254029,28473,1596774719301621913,imu_link,0.828020461143,0.517594480007,0.185877798563,-0.109213159445,0.0025,0.0,0.0,0.0,0.0025,0.0,0.0,0.0,0.0025,-0.09,0.16,0.13,0.02,0.0,0.0,0.0,0.02,0.0,0.0,0.0,0.02,3.5623359375,-0.55541796875,-10.4284511719,0.04,0.0,0.0,0.0,0.04,0.0,0.0,0.0,0.04
1597380899899689869,28474,1596774719321572065,imu_link,0.829284861919,0.516230289135,0.183322062798,-0.110389889316,0.0025,0.0,0.0,0.0,0.0025,0.0,0.0,0.0,0.0025,-0.01,0.32,0.06,0.02,0.0,0.0,0.0,0.02,0.0,0.0,0.0,0.02,3.92163390625,-1.54674328125,-8.86753515625,0.04,0.0,0.0,0.0,0.04,0.0,0.0,0.0,0.04
1597380899920593047,28475,1596774719341583013,imu_link,-0.829228804978,-0.515354206528,-0.181548757871,0.11759965699,0.0025,0.0,0.0,0.0,0.0025,0.0,0.0,0.0,0.0025,-0.02,0.34,-0.23,0.02,0.0,0.0,0.0,0.02,0.0,0.0,0.0,0.02,3.600640625,-1.58006835937,-8.59940234375,0.04,0.0,0.0,0.0,0.04,0.0,0.0,0.0,0.04
1597380899940187014,28476,1596774719361541986,imu_link,-0.827944175425,-0.516373635091,-0.180457250433,0.123700817006,0.0025,0.0,0.0,0.0,0.0025,0.0,0.0,0.0,0.0025,-0.02,0.44,-0.41,0.02,0.0,0.0,0.0,0.02,0.0,0.0,0.0,0.02,3.251301875,-0.89556359375,-5.61163671875,0.04,0.0,0.0,0.0,0.04,0.0,0.0,0.0,0.04
1597380899959532446,28477,1596774719381458997,imu_link,-0.826708822236,-0.518172507215,-0.180628318868,0.124190122101,0.0025,0.0,0.0,0.0,0.0025,0.0,0.0,0.0,0.0025,0.02,-0.03,-0.37,0.02,0.0,0.0,0.0,0.02,0.0,0.0,0.0,0.02,3.26547460937,0.0383046875,-7.47439367187,0.04,0.0,0.0,0.0,0.04,0.0,0.0,0.0,0.04
1597380899979950490,28478,1596774719401488065,imu_link,-0.826272330371,-0.51985924549,-0.179278701901,0.12198175268,0.0025,0.0,0.0,0.0,0.0025,0.0,0.0,0.0,0.0025,0.05,-0.13,-0.26,0.02,0.0,0.0,0.0,0.02,0.0,0.0,0.0,0.02,3.72053429687,-0.407178828125,-7.07679101562,0.04,0.0,0.0,0.0,0.04,0.0,0.0,0.0,0.04
1597380900000390666,28479,1596774719421329021,imu_link,-0.82575689439,-0.521385987482,-0.177722947528,0.121230183313,0.0025,0.0,0.0,0.0,0.0025,0.0,0.0,0.0,0.0025,0.02,-0.28,-0.28,0.02,0.0,0.0,0.0,0.02,0.0,0.0,0.0,0.02,3.80671984375,-0.28268859375,-7.6992421875,0.04,0.0,0.0,0.0,0.04,0.0,0.0,0.0,0.04
1597380900021036442,28480,1596774719442265987,imu_link,-0.82518035712,-0.523531174807,-0.175495422888,0.119137919128,0.0025,0.0,0.0,0.0,0.0025,0.0,0.0,0.0,0.0025,-0.01,-0.37,-0.34,0.02,0.0,0.0,0.0,0.02,0.0,0.0,0.0,0.02,3.54816320312,0.3447421875,-7.63220898437,0.04,0.0,0.0,0.0,0.04,0.0,0.0,0.0,0.04
1597380900041980321,28481,1596774719461549997,imu_link,-0.82480534077,-0.525828250636,-0.173666838716,0.114195576978,0.0025,0.0,0.0,0.0,0.0025,0.0,0.0,0.0,0.0025,-0.06,-0.42,-0.28,0.02,0.0,0.0,0.0,0.02,0.0,0.0,0.0,0.02,3.251301875,0.560397578125,-7.83828820312,0.04,0.0,0.0,0.0,0.04,0.0,0.0,0.0,0.04
1597380900059715995,28482,1596774719481252908,imu_link,0.825292520534,0.527202158351,0.170930838104,-0.108317996499,0.0025,0.0,0.0,0.0,0.0025,0.0,0.0,0.0,0.0025,-0.05,-0.45,-0.16,0.02,0.0,0.0,0.0,0.02,0.0,0.0,0.0,0.02,3.6726534375,-0.162794921875,-8.10144140625,0.04,0.0,0.0,0.0,0.04,0.0,0.0,0.0,0.04
1597380900079055702,28483,1596774719501374959,imu_link,0.826241037837,0.527464457217,0.167823355477,-0.104605521478,0.0025,0.0,0.0,0.0,0.0025,0.0,0.0,0.0,0.0025,-0.17,-0.51,-0.11,0.02,0.0,0.0,0.0,0.02,0.0,0.0,0.0,0.02,3.57689171875,-0.311417109375,-8.68099132812,0.04,0.0,0.0,0.0,0.04,0.0,0.0,0.0,0.04
1597380900101171119,28484,1596774719521353960,imu_link,0.827493010212,0.52720566342,0.164820898054,-0.100715331867,0.0025,0.0,0.0,0.0,0.0025,0.0,0.0,0.0,0.0025,-0.32,-0.41,-0.04,0.02,0.0,0.0,0.0,0.02,0.0,0.0,0.0,0.02,3.46197765625,-0.58912609375,-8.02023546875,0.04,0.0,0.0,0.0,0.04,0.0,0.0,0.0,0.04
1597380900119280225,28485,1596774719541292905,imu_link,0.828158386313,0.527243858348,0.162772599307,-0.0983497937427,0.0025,0.0,0.0,0.0,0.0025,0.0,0.0,0.0,0.0025,-0.3,-0.35,-0.14,0.02,0.0,0.0,0.0,0.02,0.0,0.0,0.0,0.02,3.79714367187,-0.3018409375,-8.58025,0.04,0.0,0.0,0.0,0.04,0.0,0.0,0.0,0.04
1597380900139779044,28486,1596774719561292886,imu_link,0.827059368101,0.52907596028,0.162982384315,-0.0974072496946,0.0025,0.0,0.0,0.0,0.0025,0.0,0.0,0.0,0.0025,-0.21,-0.16,-0.29,0.02,0.0,0.0,0.0,0.02,0.0,0.0,0.0,0.02,3.49530273437,0.411775390625,-8.21635546875,0.04,0.0,0.0,0.0,0.04,0.0,0.0,0.0,0.04
1597380900161105431,28487,1596774719581374883,imu_link,0.825641456804,0.531129282721,0.165231109012,-0.0944274878315,0.0025,0.0,0.0,0.0,0.0025,0.0,0.0,0.0,0.0025,-0.17,-0.01,-0.28,0.02,0.0,0.0,0.0,0.02,0.0,0.0,0.0,0.02,3.34706359375,1.12539171875,-7.41693664062,0.04,0.0,0.0,0.0,0.04,0.0,0.0,0.0,0.04
1597380900178826025,28488,1596774719601200103,imu_link,0.825019959416,0.531867359261,0.168314372157,-0.0901634673467,0.0025,0.0,0.0,0.0,0.0025,0.0,0.0,0.0,0.0025,-0.16,-0.06,-0.1,0.02,0.0,0.0,0.0,0.02,0.0,0.0,0.0,0.02,3.54816320312,0.59372265625,-7.83828820312,0.04,0.0,0.0,0.0,0.04,0.0,0.0,0.0,0.04
1597380900200109477,28489,1596774719621232986,imu_link,0.824728050573,0.531923946643,0.170492624149,-0.0883901730741,0.0025,0.0,0.0,0.0,0.0025,0.0,0.0,0.0,0.0025,-0.12,-0.03,-0.02,0.02,0.0,0.0,0.0,0.02,0.0,0.0,0.0,0.02,3.93121007812,0.373470703125,-7.0863671875,0.04,0.0,0.0,0.0,0.04,0.0,0.0,0.0,0.04
1597380900219513202,28490,1596774719641330957,imu_link,0.824739571237,0.531090225544,0.1729708069,-0.0884811388276,0.0025,0.0,0.0,0.0,0.0025,0.0,0.0,0.0,0.0025,-0.09,-0.09,0.02,0.02,0.0,0.0,0.0,0.02,0.0,0.0,0.0,0.02,4.290125,0.3064375,-7.78083117187,0.04,0.0,0.0,0.0,0.04,0.0,0.0,0.0,0.04
1597380900238606677,28491,1596774719661210060,imu_link,0.824708356764,0.52975421254,0.176214506587,-0.0903606565272,0.0025,0.0,0.0,0.0,0.0025,0.0,0.0,0.0,0.0025,-0.02,-0.02,0.06,0.02,0.0,0.0,0.0,0.02,0.0,0.0,0.0,0.02,4.4816484375,0.0720128125,-7.68008984375,0.04,0.0,0.0,0.0,0.04,0.0,0.0,0.0,0.04
1597380900259789877,28492,1596774719681152105,imu_link,0.824678045419,0.528187432135,0.179578249848,-0.0931440288996,0.0025,0.0,0.0,0.0,0.0025,0.0,0.0,0.0,0.0025,-0.05,-0.03,0.06,0.02,0.0,0.0,0.0,0.02,0.0,0.0,0.0,0.02,3.99824328125,0.63662390625,-7.70881835937,0.04,0.0,0.0,0.0,0.04,0.0,0.0,0.0,0.04
1597380900280026337,28493,1596774719701203107,imu_link,0.82543690945,0.526550725565,0.181031674054,-0.0928750500025,0.0025,0.0,0.0,0.0,0.0025,0.0,0.0,0.0,0.0025,0.0,-0.12,0.19,0.02,0.0,0.0,0.0,0.02,0.0,0.0,0.0,0.02,4.24722375,0.794822265625,-8.73844835937,0.04,0.0,0.0,0.0,0.04,0.0,0.0,0.0,0.04
1597380900300406961,28494,1596774719721261978,imu_link,0.826724435204,0.52405757637,0.182386487234,-0.0928737538801,0.0025,0.0,0.0,0.0,0.0025,0.0,0.0,0.0,0.0025,0.1,-0.08,0.32,0.02,0.0,0.0,0.0,0.02,0.0,0.0,0.0,0.02,4.903,-0.09576171875,-9.91133789062,0.04,0.0,0.0,0.0,0.04,0.0,0.0,0.0,0.04
1597380900319478515,28495,1596774719741131067,imu_link,0.828211827876,0.520634060361,0.183134009568,-0.0972999378137,0.0025,0.0,0.0,0.0,0.0025,0.0,0.0,0.0,0.0025,0.08,0.12,0.33,0.02,0.0,0.0,0.0,0.02,0.0,0.0,0.0,0.02,5.1374246875,-1.15412023437,-9.6910859375,0.04,0.0,0.0,0.0,0.04,0.0,0.0,0.0,0.04
1597380900339201148,28496,1596774719761002063,imu_link,0.829316785418,0.517446625012,0.183309868639,-0.10430796589,0.0025,0.0,0.0,0.0,0.0025,0.0,0.0,0.0,0.0025,0.01,0.11,0.18,0.02,0.0,0.0,0.0,0.02,0.0,0.0,0.0,0.02,4.91717273437,-1.6471015625,-9.8105965625,0.04,0.0,0.0,0.0,0.04,0.0,0.0,0.0,0.04
1597380900359703876,28497,1596774719781027078,imu_link,0.82972193068,0.516133022401,0.18148420535,-0.110597034969,0.0025,0.0,0.0,0.0,0.0025,0.0,0.0,0.0,0.0025,-0.04,0.04,-0.04,0.02,0.0,0.0,0.0,0.02,0.0,0.0,0.0,0.02,4.44334375,-1.01047765625,-11.0413261719,0.04,0.0,0.0,0.0,0.04,0.0,0.0,0.0,0.04
1597380900379247299,28498,1596774719801071882,imu_link,0.829327734387,0.516770017118,0.18045379461,-0.112252779014,0.0025,0.0,0.0,0.0,0.0025,0.0,0.0,0.0,0.0025,-0.07,0.19,-0.16,0.02,0.0,0.0,0.0,0.02,0.0,0.0,0.0,0.02,3.92163390625,0.430927734375,-10.3372860156,0.04,0.0,0.0,0.0,0.04,0.0,0.0,0.0,0.04
1597380900400047502,28499,1596774719821135044,imu_link,0.829570303396,0.517314138021,0.179883164237,-0.108817468961,0.0025,0.0,0.0,0.0,0.0025,0.0,0.0,0.0,0.0025,-0.07,0.07,-0.06,0.02,0.0,0.0,0.0,0.02,0.0,0.0,0.0,0.02,4.64444335937,2.11173742188,-11.5821883594,0.04,0.0,0.0,0.0,0.04,0.0,0.0,0.0,0.04
1597380900420140844,28500,1596774719841156959,imu_link,0.830648850821,0.515761332773,0.181292936801,-0.105572748903,0.0025,0.0,0.0,0.0,0.0025,0.0,0.0,0.0,0.0025,0.06,0.08,0.25,0.02,0.0,0.0,0.0,0.02,0.0,0.0,0.0,0.02,5.30979578125,1.27363085937,-12.3678175,0.04,0.0,0.0,0.0,0.04,0.0,0.0,0.0,0.04
1597380900441663476,28501,1596774719861152887,imu_link,0.832604110905,0.512468397032,0.181567462226,-0.105734541222,0.0025,0.0,0.0,0.0,0.0025,0.0,0.0,0.0,0.0025,0.09,0.09,0.38,0.02,0.0,0.0,0.0,0.02,0.0,0.0,0.0,0.02,6.30610070312,0.564994140625,-11.9748114062,0.04,0.0,0.0,0.0,0.04,0.0,0.0,0.0,0.04
1597380900469591139,28502,1596774719887321949,imu_link,0.834479231323,0.508923180444,0.182592156181,-0.106309516973,0.0025,0.0,0.0,0.0,0.0025,0.0,0.0,0.0,0.0025,-0.01,0.04,0.37,0.02,0.0,0.0,0.0,0.02,0.0,0.0,0.0,0.02,5.2140340625,-1.01507421875,-12.1280301562,0.04,0.0,0.0,0.0,0.04,0.0,0.0,0.0,0.04
1597380900478978248,28503,1596774719901024103,imu_link,0.835809183204,0.506592195739,0.183258904838,-0.105846730163,0.0025,0.0,0.0,0.0,0.0025,0.0,0.0,0.0,0.0025,-0.27,0.1,0.16,0.02,0.0,0.0,0.0,0.02,0.0,0.0,0.0,0.02,3.22716992187,-0.4550596875,-10.6870078125,0.04,0.0,0.0,0.0,0.04,0.0,0.0,0.0,0.04
1597380900498725455,28504,1596774719921008110,imu_link,0.837564075364,0.50552792128,0.179579255691,-0.103340366706,0.0025,0.0,0.0,0.0,0.0025,0.0,0.0,0.0,0.0025,-0.23,0.13,0.07,0.02,0.0,0.0,0.0,0.02,0.0,0.0,0.0,0.02,2.63804382812,-0.119893671875,-10.801921875,0.04,0.0,0.0,0.0,0.04,0.0,0.0,0.0,0.04
1597380900519257435,28505,1596774719940860033,imu_link,0.838086395844,0.506435902584,0.175253359663,-0.102079036052,0.0025,0.0,0.0,0.0,0.0025,0.0,0.0,0.0,0.0025,0.06,0.34,-0.06,0.02,0.0,0.0,0.0,0.02,0.0,0.0,0.0,0.02,2.89200390625,0.58912609375,-9.70564171875,0.04,0.0,0.0,0.0,0.04,0.0,0.0,0.0,0.04
1597380900539587306,28506,1596774719960841894,imu_link,0.837928894211,0.507654722137,0.17446451298,-0.0986102684723,0.0025,0.0,0.0,0.0,0.0025,0.0,0.0,0.0,0.0025,0.04,0.36,-0.11,0.02,0.0,0.0,0.0,0.02,0.0,0.0,0.0,0.02,2.58058679688,0.78524609375,-9.25058203125,0.04,0.0,0.0,0.0,0.04,0.0,0.0,0.0,0.04
1597380900559887296,28507,1596774719980854034,imu_link,0.837648295312,0.509138664321,0.174395929959,-0.0933231668357,0.0025,0.0,0.0,0.0,0.0025,0.0,0.0,0.0,0.0025,-0.09,0.38,-0.11,0.02,0.0,0.0,0.0,0.02,0.0,0.0,0.0,0.02,2.35573828125,0.9913253125,-7.97695117187,0.04,0.0,0.0,0.0,0.04,0.0,0.0,0.0,0.04
1597380900579476795,28508,1596774720000910997,imu_link,0.837306646835,0.510153210244,0.175206180155,-0.0892416700879,0.0025,0.0,0.0,0.0,0.0025,0.0,0.0,0.0,0.0025,-0.06,0.23,-0.07,0.02,0.0,0.0,0.0,0.02,0.0,0.0,0.0,0.02,2.7579375,1.6808096875,-7.40238085937,0.04,0.0,0.0,0.0,0.04,0.0,0.0,0.0,0.04
1597380900600491534,28509,1596774720020860910,imu_link,0.836708744556,0.51116475319,0.177119737048,-0.0851919634012,0.0025,0.0,0.0,0.0,0.0025,0.0,0.0,0.0,0.0025,0.05,0.08,-0.03,0.02,0.0,0.0,0.0,0.02,0.0,0.0,0.0,0.02,3.12681164062,1.37896875,-7.64676476562,0.04,0.0,0.0,0.0,0.04,0.0,0.0,0.0,0.04
1597380900619485595,28510,1596774720040843009,imu_link,0.836898717885,0.511185545548,0.17821239331,-0.0808097574333,0.0025,0.0,0.0,0.0,0.0025,0.0,0.0,0.0,0.0025,-0.04,-0.09,0.05,0.02,0.0,0.0,0.0,0.02,0.0,0.0,0.0,0.02,3.20801757812,0.665352421875,-7.79998351562,0.04,0.0,0.0,0.0,0.04,0.0,0.0,0.0,0.04
1597380900638925414,28511,1596774720060847997,imu_link,0.837968344981,0.51027906639,0.177860517552,-0.0760918097439,0.0025,0.0,0.0,0.0,0.0025,0.0,0.0,0.0,0.0025,-0.28,-0.25,0.07,0.02,0.0,0.0,0.0,0.02,0.0,0.0,0.0,0.02,2.97320984375,0.71323328125,-7.95320226562,0.04,0.0,0.0,0.0,0.04,0.0,0.0,0.0,0.04
1597380900659688896,28512,1596774720080842018,imu_link,0.839158697373,0.509418942914,0.176808700741,-0.0710190436857,0.0025,0.0,0.0,0.0,0.0025,0.0,0.0,0.0,0.0025,-0.3,-0.24,0.09,0.02,0.0,0.0,0.0,0.02,0.0,0.0,0.0,0.02,2.81999109375,0.51711328125,-8.47031554687,0.04,0.0,0.0,0.0,0.04,0.0,0.0,0.0,0.04
1597380900678991951,28513,1596774720100722074,imu_link,0.839846972212,0.509484384693,0.174695535109,-0.0675588264656,0.0025,0.0,0.0,0.0,0.0025,0.0,0.0,0.0,0.0025,-0.19,-0.11,0.02,0.02,0.0,0.0,0.0,0.02,0.0,0.0,0.0,0.02,2.82956726562,1.27861046875,-7.11509570312,0.04,0.0,0.0,0.0,0.04,0.0,0.0,0.0,0.04
1597380900700026238,28514,1596774720120733022,imu_link,0.840009533978,0.509850585667,0.174199149089,-0.0639610786145,0.0025,0.0,0.0,0.0,0.0025,0.0,0.0,0.0,0.0025,-0.06,-0.23,0.07,0.02,0.0,0.0,0.0,0.02,0.0,0.0,0.0,0.02,2.99734179687,2.01099609375,-7.76167882812,0.04,0.0,0.0,0.0,0.04,0.0,0.0,0.0,0.04
1597380900719632353,28515,1596774720140784025,imu_link,0.840562909532,0.509419479955,0.174588876006,-0.0588601132897,0.0025,0.0,0.0,0.0,0.0025,0.0,0.0,0.0,0.0025,0.04,-0.21,0.25,0.02,0.0,0.0,0.0,0.02,0.0,0.0,0.0,0.02,3.2896065625,1.52261132812,-7.37365234375,0.04,0.0,0.0,0.0,0.04,0.0,0.0,0.0,0.04
1597380900739151061,28516,1596774720160672903,imu_link,0.841457123283,0.507795532874,0.175264097517,-0.0581042390191,0.0025,0.0,0.0,0.0,0.0025,0.0,0.0,0.0,0.0025,0.15,-0.12,0.33,0.02,0.0,0.0,0.0,0.02,0.0,0.0,0.0,0.02,3.53858703125,1.05835851562,-7.0480625,0.04,0.0,0.0,0.0,0.04,0.0,0.0,0.0,0.04
1597380900758412367,28517,1596774720180686950,imu_link,0.842134953697,0.506166901524,0.175883269952,-0.0605711392813,0.0025,0.0,0.0,0.0,0.0025,0.0,0.0,0.0,0.0025,0.27,-0.07,0.32,0.02,0.0,0.0,0.0,0.02,0.0,0.0,0.0,0.02,3.92623046875,0.493364375,-6.57883007812,0.04,0.0,0.0,0.0,0.04,0.0,0.0,0.0,0.04
1597380900778503197,28518,1596774720200618028,imu_link,0.842330073981,0.504976290806,0.176375746584,-0.066110424348,0.0025,0.0,0.0,0.0,0.0025,0.0,0.0,0.0,0.0025,0.39,-0.04,0.24,0.02,0.0,0.0,0.0,0.02,0.0,0.0,0.0,0.02,4.1323096875,0.143642578125,-6.88526757812,0.04,0.0,0.0,0.0,0.04,0.0,0.0,0.0,0.04
1597380900799033501,28519,1596774720220653057,imu_link,0.842387795545,0.503839165361,0.176775715902,-0.0726584037348,0.0025,0.0,0.0,0.0,0.0025,0.0,0.0,0.0,0.0025,0.39,-0.04,0.2,0.02,0.0,0.0,0.0,0.02,0.0,0.0,0.0,0.02,4.23266796875,0.01455578125,-6.60296203125,0.04,0.0,0.0,0.0,0.04,0.0,0.0,0.0,0.04
1597380900818076710,28520,1596774720240489006,imu_link,0.84260442344,0.502681111983,0.176621666993,-0.0783215934683,0.0025,0.0,0.0,0.0,0.0025,0.0,0.0,0.0,0.0025,0.34,-0.16,0.18,0.02,0.0,0.0,0.0,0.02,0.0,0.0,0.0,0.02,4.19436328125,-0.340145625,-7.14382421875,0.04,0.0,0.0,0.0,0.04,0.0,0.0,0.0,0.04
1597380900839218092,28521,1596774720260626077,imu_link,0.842894458645,0.501645128925,0.175924853182,-0.0832558841438,0.0025,0.0,0.0,0.0,0.0025,0.0,0.0,0.0,0.0025,0.21,-0.21,0.11,0.02,0.0,0.0,0.0,0.02,0.0,0.0,0.0,0.02,4.26139648438,0.162794921875,-7.47439367187,0.04,0.0,0.0,0.0,0.04,0.0,0.0,0.0,0.04
1597380900859058500,28522,1596774720280611991,imu_link,0.842551191757,0.501301126113,0.177028040066,-0.0864045326252,0.0025,0.0,0.0,0.0,0.0025,0.0,0.0,0.0,0.0025,0.15,-0.15,0.07,0.02,0.0,0.0,0.0,0.02,0.0,0.0,0.0,0.02,4.22807140625,0.0812059375,-8.10144140625,0.04,0.0,0.0,0.0,0.04,0.0,0.0,0.0,0.04
1597380900878371678,28523,1596774720300506114,imu_link,0.841949064557,0.501313206431,0.178030247343,-0.0900670460288,0.0025,0.0,0.0,0.0,0.0025,0.0,0.0,0.0,0.0025,0.18,-0.04,0.01,0.02,0.0,0.0,0.0,0.02,0.0,0.0,0.0,0.02,4.45789953125,-0.426331171875,-8.2355078125,0.04,0.0,0.0,0.0,0.04,0.0,0.0,0.0,0.04
1597380900899149820,28524,1596774720320630073,imu_link,0.841169520795,0.501421111291,0.178657241597,-0.0953535340843,0.0025,0.0,0.0,0.0,0.0025,0.0,0.0,0.0,0.0025,0.14,-0.07,-0.09,0.02,0.0,0.0,0.0,0.02,0.0,0.0,0.0,0.02,4.33340929687,0.05745703125,-9.45666125,0.04,0.0,0.0,0.0,0.04,0.0,0.0,0.0,0.04
1597380900919585597,28525,1596774720340460062,imu_link,0.84041720143,0.502225123443,0.178818094629,-0.0974317297266,0.0025,0.0,0.0,0.0,0.0025,0.0,0.0,0.0,0.0025,0.14,0.04,-0.08,0.02,0.0,0.0,0.0,0.02,0.0,0.0,0.0,0.02,4.33340929687,-0.349721796875,-9.56659570312,0.04,0.0,0.0,0.0,0.04,0.0,0.0,0.0,0.04
1597380900938949250,28526,1596774720360474109,imu_link,0.840095760129,0.502346805368,0.178480474061,-0.100157482641,0.0025,0.0,0.0,0.0,0.0025,0.0,0.0,0.0,0.0025,0.06,0.07,-0.07,0.02,0.0,0.0,0.0,0.02,0.0,0.0,0.0,0.02,4.22309179687,-0.28268859375,-10.3181336719,0.04,0.0,0.0,0.0,0.04,0.0,0.0,0.0,0.04
1597380900958638931,28527,1596774720380513906,imu_link,0.839953642638,0.502239616406,0.179045896472,-0.100875234262,0.0025,0.0,0.0,0.0,0.0025,0.0,0.0,0.0,0.0025,-0.09,0.21,-0.06,0.02,0.0,0.0,0.0,0.02,0.0,0.0,0.0,0.02,4.24722375,0.124490234375,-9.4995625,0.04,0.0,0.0,0.0,0.04,0.0,0.0,0.0,0.04
1597380900978836017,28528,1596774720400803089,imu_link,0.839514631074,0.502331855008,0.180792218328,-0.100955759863,0.0025,0.0,0.0,0.0,0.0025,0.0,0.0,0.0,0.0025,-0.05,0.15,-0.04,0.02,0.0,0.0,0.0,0.02,0.0,0.0,0.0,0.02,4.31425695312,0.335166015625,-10.5096571094,0.04,0.0,0.0,0.0,0.04,0.0,0.0,0.0,0.04
1597380900998162459,28529,1596774720420453071,imu_link,0.839104337667,0.502986869515,0.180575348348,-0.101492182817,0.0025,0.0,0.0,0.0,0.0025,0.0,0.0,0.0,0.0025,0.15,0.14,-0.06,0.02,0.0,0.0,0.0,0.02,0.0,0.0,0.0,0.02,5.96097546875,0.6940809375,-11.38108875,0.04,0.0,0.0,0.0,0.04,0.0,0.0,0.0,0.04
1597380901019243451,28530,1596774720440895080,imu_link,0.837959898649,0.503975415115,0.18232328208,-0.102908746114,0.0025,0.0,0.0,0.0,0.0025,0.0,0.0,0.0,0.0025,0.18,0.09,-0.1,0.02,0.0,0.0,0.0,0.02,0.0,0.0,0.0,0.02,5.46301453125,0.450080078125,-11.3523602344,0.04,0.0,0.0,0.0,0.04,0.0,0.0,0.0,0.04
1597380901039951431,28531,1596774720460582971,imu_link,0.837859207201,0.504484592392,0.18200589829,-0.101789478512,0.0025,0.0,0.0,0.0,0.0025,0.0,0.0,0.0,0.0025,0.02,-0.14,-0.06,0.02,0.0,0.0,0.0,0.02,0.0,0.0,0.0,0.02,4.94590125,1.9106378125,-12.2766523437,0.04,0.0,0.0,0.0,0.04,0.0,0.0,0.0,0.04
1597380901058157997,28532,1596774720480256080,imu_link,0.83922594888,0.502832666938,0.182226137793,-0.0982484121568,0.0025,0.0,0.0,0.0,0.0025,0.0,0.0,0.0,0.0025,-0.1,-0.07,0.22,0.02,0.0,0.0,0.0,0.02,0.0,0.0,0.0,0.02,3.85919726562,1.9489425,-11.917354375,0.04,0.0,0.0,0.0,0.04,0.0,0.0,0.0,0.04
1597380901078745688,28533,1596774720500247001,imu_link,0.841939788709,0.499213758145,0.182352676706,-0.0931156118281,0.0025,0.0,0.0,0.0,0.0025,0.0,0.0,0.0,0.0025,-0.17,0.04,0.49,0.02,0.0,0.0,0.0,0.02,0.0,0.0,0.0,0.02,2.95903710937,1.23072960937,-11.610916875,0.04,0.0,0.0,0.0,0.04,0.0,0.0,0.0,0.04
1597380901100135744,28534,1596774720521105051,imu_link,0.846045207487,0.494002090576,0.179902322821,-0.0883436225147,0.0025,0.0,0.0,0.0,0.0025,0.0,0.0,0.0,0.0025,-0.15,0.1,0.69,0.02,0.0,0.0,0.0,0.02,0.0,0.0,0.0,0.02,3.24632226562,-0.761114140625,-10.2848085937,0.04,0.0,0.0,0.0,0.04,0.0,0.0,0.0,0.04
1597380901118693820,28535,1596774720540390968,imu_link,0.850061809949,0.488870040332,0.173895924602,-0.0903394174196,0.0025,0.0,0.0,0.0,0.0025,0.0,0.0,0.0,0.0025,-0.06,0.03,0.56,0.02,0.0,0.0,0.0,0.02,0.0,0.0,0.0,0.02,3.26547460937,-2.22665148438,-10.078729375,0.04,0.0,0.0,0.0,0.04,0.0,0.0,0.0,0.04
1597380901138949618,28536,1596774720560261964,imu_link,-0.852350431451,-0.486103786916,-0.16643329273,0.0974772251449,0.0025,0.0,0.0,0.0,0.0025,0.0,0.0,0.0,0.0025,-0.01,0.08,0.17,0.02,0.0,0.0,0.0,0.02,0.0,0.0,0.0,0.02,2.221671875,-2.18834679687,-9.36089953125,0.04,0.0,0.0,0.0,0.04,0.0,0.0,0.0,0.04
1597380901158064875,28537,1596774720580197095,imu_link,-0.853923869312,-0.485928306727,-0.154874855886,0.103447982848,0.0025,0.0,0.0,0.0,0.0025,0.0,0.0,0.0,0.0025,0.03,0.07,-0.09,0.02,0.0,0.0,0.0,0.02,0.0,0.0,0.0,0.02,2.16919445312,-0.536265625,-8.70014367187,0.04,0.0,0.0,0.0,0.04,0.0,0.0,0.0,0.04
1597380901178806226,28538,1596774720600307941,imu_link,-0.854862299495,-0.486437750557,-0.148646582923,0.102435136161,0.0025,0.0,0.0,0.0,0.0025,0.0,0.0,0.0,0.0025,0.11,-0.07,-0.01,0.02,0.0,0.0,0.0,0.02,0.0,0.0,0.0,0.02,2.7196328125,-0.852279296875,-8.58025,0.04,0.0,0.0,0.0,0.04,0.0,0.0,0.0,0.04
1597380901198371011,28539,1596774720620285034,imu_link,-0.855840319024,-0.486524558073,-0.143204456832,0.101605542509,0.0025,0.0,0.0,0.0,0.0025,0.0,0.0,0.0,0.0025,-0.03,-0.28,-0.03,0.02,0.0,0.0,0.0,0.02,0.0,0.0,0.0,0.02,2.81041492188,-0.445483515625,-8.75262109375,0.04,0.0,0.0,0.0,0.04,0.0,0.0,0.0,0.04
1597380901218456953,28540,1596774720640302896,imu_link,-0.856567301738,-0.487271734004,-0.138543063814,0.0983083633378,0.0025,0.0,0.0,0.0,0.0025,0.0,0.0,0.0,0.0025,-0.1,-0.37,-0.04,0.02,0.0,0.0,0.0,0.02,0.0,0.0,0.0,0.02,2.89660046875,-0.105337890625,-9.04488585937,0.04,0.0,0.0,0.0,0.04,0.0,0.0,0.0,0.04
1597380901238814679,28541,1596774720660213947,imu_link,-0.856549838894,-0.489101833461,-0.134454304273,0.0949937369368,0.0025,0.0,0.0,0.0,0.0025,0.0,0.0,0.0,0.0025,0.03,-0.37,-0.08,0.02,0.0,0.0,0.0,0.02,0.0,0.0,0.0,0.02,3.19384484375,-0.047880859375,-9.09736328125,0.04,0.0,0.0,0.0,0.04,0.0,0.0,0.0,0.04
1597380901259584792,28542,1596774720680397987,imu_link,-0.856370011942,-0.490654570138,-0.131826529914,0.0922510783663,0.0025,0.0,0.0,0.0,0.0025,0.0,0.0,0.0,0.0025,0.04,-0.39,-0.08,0.02,0.0,0.0,0.0,0.02,0.0,0.0,0.0,0.02,3.18886523437,-0.354318359375,-9.40380078125,0.04,0.0,0.0,0.0,0.04,0.0,0.0,0.0,0.04
1597380901278342884,28543,1596774720700258970,imu_link,-0.855982791697,-0.492287556993,-0.129334074988,0.0906593547042,0.0025,0.0,0.0,0.0,0.0025,0.0,0.0,0.0,0.0025,-0.02,-0.29,-0.13,0.02,0.0,0.0,0.0,0.02,0.0,0.0,0.0,0.02,2.78666601562,-0.493364375,-9.47581359375,0.04,0.0,0.0,0.0,0.04,0.0,0.0,0.0,0.04
1597380901300225195,28544,1596774720720191001,imu_link,-0.85525094146,-0.494332404934,-0.127248921148,0.0893812767306,0.0025,0.0,0.0,0.0,0.0025,0.0,0.0,0.0,0.0025,-0.09,-0.07,-0.17,0.02,0.0,0.0,0.0,0.02,0.0,0.0,0.0,0.02,2.64762,-0.584146484375,-8.67141515625,0.04,0.0,0.0,0.0,0.04,0.0,0.0,0.0,0.04
1597380901318228254,28545,1596774720740252017,imu_link,-0.853786028227,-0.496929137069,-0.126585607032,0.0899273864171,0.0025,0.0,0.0,0.0,0.0025,0.0,0.0,0.0,0.0025,-0.04,0.06,-0.25,0.02,0.0,0.0,0.0,0.02,0.0,0.0,0.0,0.02,2.84412304687,-0.28268859375,-8.3887265625,0.04,0.0,0.0,0.0,0.04,0.0,0.0,0.0,0.04
1597380901340078102,28546,1596774720760093927,imu_link,-0.851729308381,-0.499798945975,-0.128554703924,0.0907297467552,0.0025,0.0,0.0,0.0,0.0025,0.0,0.0,0.0,0.0025,0.0,0.17,-0.3,0.02,0.0,0.0,0.0,0.02,0.0,0.0,0.0,0.02,2.98278601562,0.05286046875,-7.60846007812,0.04,0.0,0.0,0.0,0.04,0.0,0.0,0.0,0.04
1597380901358121723,28547,1596774720780261993,imu_link,-0.849458979157,-0.502565132524,-0.132547469097,0.0909884538652,0.0025,0.0,0.0,0.0,0.0025,0.0,0.0,0.0,0.0025,-0.04,0.22,-0.3,0.02,0.0,0.0,0.0,0.02,0.0,0.0,0.0,0.02,3.064375,0.28268859375,-7.00516125,0.04,0.0,0.0,0.0,0.04,0.0,0.0,0.0,0.04
1597380901378468278,28548,1596774720799998044,imu_link,-0.84727321598,-0.504993201938,-0.137106770499,0.0911685086145,0.0025,0.0,0.0,0.0,0.0025,0.0,0.0,0.0,0.0025,-0.05,0.23,-0.24,0.02,0.0,0.0,0.0,0.02,0.0,0.0,0.0,0.02,2.96861328125,0.1915234375,-6.48804796875,0.04,0.0,0.0,0.0,0.04,0.0,0.0,0.0,0.04
1597380901400821201,28549,1596774720820238113,imu_link,-0.845563888655,-0.506722163904,-0.140907783578,0.0916479969179,0.0025,0.0,0.0,0.0,0.0025,0.0,0.0,0.0,0.0025,-0.05,0.22,-0.2,0.02,0.0,0.0,0.0,0.02,0.0,0.0,0.0,0.02,3.32791125,0.9913253125,-6.26281640625,0.04,0.0,0.0,0.0,0.04,0.0,0.0,0.0,0.04
1597380901419548645,28550,1596774720841062068,imu_link,-0.844519912559,-0.507312841915,-0.145597127362,0.0906712425406,0.0025,0.0,0.0,0.0,0.0025,0.0,0.0,0.0,0.0025,-0.06,0.12,-0.05,0.02,0.0,0.0,0.0,0.02,0.0,0.0,0.0,0.02,4.07944921875,0.488384765625,-6.1670546875,0.04,0.0,0.0,0.0,0.04,0.0,0.0,0.0,0.04
1597380901438766876,28551,1596774720860009908,imu_link,-0.843909329505,-0.506925070861,-0.150422623647,0.0906479475911,0.0025,0.0,0.0,0.0,0.0025,0.0,0.0,0.0,0.0025,-0.1,-0.02,0.01,0.02,0.0,0.0,0.0,0.02,0.0,0.0,0.0,0.02,4.323833125,0.273112421875,-6.57423351562,0.04,0.0,0.0,0.0,0.04,0.0,0.0,0.0,0.04
1597380901458680728,28552,1596774720880016088,imu_link,0.84310431602,0.50660315825,0.155484186622,-0.091394858012,0.0025,0.0,0.0,0.0,0.0025,0.0,0.0,0.0,0.0025,-0.11,-0.06,0.0,0.02,0.0,0.0,0.0,0.02,0.0,0.0,0.0,0.02,4.0557003125,0.962596796875,-7.01473742187,0.04,0.0,0.0,0.0,0.04,0.0,0.0,0.0,0.04
1597380901478506057,28553,1596774720900012969,imu_link,0.842453366557,0.506521122363,0.159972726644,-0.0900966398247,0.0025,0.0,0.0,0.0,0.0025,0.0,0.0,0.0,0.0025,-0.04,-0.1,0.08,0.02,0.0,0.0,0.0,0.02,0.0,0.0,0.0,0.02,3.91665429687,1.19702148438,-7.277890625,0.04,0.0,0.0,0.0,0.04,0.0,0.0,0.0,0.04
1597380901498831529,28554,1596774720920090913,imu_link,0.842807387555,0.505139538979,0.163393917336,-0.0883865454697,0.0025,0.0,0.0,0.0,0.0025,0.0,0.0,0.0,0.0025,0.05,-0.14,0.23,0.02,0.0,0.0,0.0,0.02,0.0,0.0,0.0,0.02,4.31425695312,0.196503046875,-8.81965429687,0.04,0.0,0.0,0.0,0.04,0.0,0.0,0.0,0.04
1597380901518624325,28555,1596774720940162897,imu_link,0.843543300443,0.502805360077,0.165838402631,-0.090106017379,0.0025,0.0,0.0,0.0,0.0025,0.0,0.0,0.0,0.0025,0.02,-0.09,0.23,0.02,0.0,0.0,0.0,0.02,0.0,0.0,0.0,0.02,4.74978125,-0.277708984375,-9.18354882812,0.04,0.0,0.0,0.0,0.04,0.0,0.0,0.0,0.04
1597380901538722834,28556,1596774720960055112,imu_link,0.843652015637,0.501288693937,0.167867255025,-0.0937096928379,0.0025,0.0,0.0,0.0,0.0025,0.0,0.0,0.0,0.0025,-0.01,-0.09,0.13,0.02,0.0,0.0,0.0,0.02,0.0,0.0,0.0,0.02,4.77391320312,-0.86185546875,-10.2177753906,0.04,0.0,0.0,0.0,0.04,0.0,0.0,0.0,0.04
1597380901558348287,28557,1596774720979981899,imu_link,0.843309096608,0.501263559152,0.167564822964,-0.0973993939869,0.0025,0.0,0.0,0.0,0.0025,0.0,0.0,0.0,0.0025,-0.0,-0.02,-0.05,0.02,0.0,0.0,0.0,0.02,0.0,0.0,0.0,0.02,4.19436328125,-0.627047734375,-10.2798289844,0.04,0.0,0.0,0.0,0.04,0.0,0.0,0.0,0.04
1597380901577535451,28558,1596774720999753952,imu_link,-0.842792915272,-0.50246421817,-0.165604874222,0.0990193771982,0.0025,0.0,0.0,0.0,0.0025,0.0,0.0,0.0,0.0025,0.01,-0.05,-0.12,0.02,0.0,0.0,0.0,0.02,0.0,0.0,0.0,0.02,3.45699804687,0.067033203125,-10.9072597656,0.04,0.0,0.0,0.0,0.04,0.0,0.0,0.0,0.04
1597380901599004536,28559,1596774721019831895,imu_link,-0.842788742801,-0.503838002403,-0.162439704751,0.0973023363656,0.0025,0.0,0.0,0.0,0.0025,0.0,0.0,0.0,0.0025,0.05,-0.02,-0.06,0.02,0.0,0.0,0.0,0.02,0.0,0.0,0.0,0.02,3.18426867187,1.20200109375,-11.6542011719,0.04,0.0,0.0,0.0,0.04,0.0,0.0,0.0,0.04
1597380901617989103,28560,1596774721039834976,imu_link,0.84406543426,0.502880255807,0.160580491486,-0.0942278980038,0.0025,0.0,0.0,0.0,0.0025,0.0,0.0,0.0,0.0025,0.14,0.08,0.2,0.02,0.0,0.0,0.0,0.02,0.0,0.0,0.0,0.02,3.15554015625,2.78666601562,-12.5593409375,0.04,0.0,0.0,0.0,0.04,0.0,0.0,0.0,0.04
1597380901638055846,28561,1596774721059863090,imu_link,-0.846608195621,-0.4986849762,-0.159988073363,0.0947189210331,0.0025,0.0,0.0,0.0,0.0025,0.0,0.0,0.0,0.0025,0.38,0.26,0.68,0.02,0.0,0.0,0.0,0.02,0.0,0.0,0.0,0.02,5.328948125,0.89556359375,-13.1817921094,0.04,0.0,0.0,0.0,0.04,0.0,0.0,0.0,0.04
1597380901660113947,28562,1596774721079835891,imu_link,-0.849405239965,-0.492105697656,-0.162072261333,0.100375807645,0.0025,0.0,0.0,0.0,0.0025,0.0,0.0,0.0,0.0025,0.29,0.49,0.81,0.02,0.0,0.0,0.0,0.02,0.0,0.0,0.0,0.02,5.54460351562,-0.953020625,-12.2670761719,0.04,0.0,0.0,0.0,0.04,0.0,0.0,0.0,0.04
1597380901677667129,28563,1596774721099781036,imu_link,-0.851798030957,-0.485716855244,-0.164815490966,0.106560334678,0.0025,0.0,0.0,0.0,0.0025,0.0,0.0,0.0,0.0025,0.16,0.52,0.71,0.02,0.0,0.0,0.0,0.02,0.0,0.0,0.0,0.02,5.64994140625,-3.24632226562,-12.0947050781,0.04,0.0,0.0,0.0,0.04,0.0,0.0,0.0,0.04
1597380901698602840,28564,1596774721119710922,imu_link,-0.852132707489,-0.482036159973,-0.169215622434,0.113477144967,0.0025,0.0,0.0,0.0,0.0025,0.0,0.0,0.0,0.0025,0.05,0.71,0.26,0.02,0.0,0.0,0.0,0.02,0.0,0.0,0.0,0.02,5.3243515625,-3.098083125,-10.2752324219,0.04,0.0,0.0,0.0,0.04,0.0,0.0,0.0,0.04
1597380901718215936,28565,1596774721139688014,imu_link,-0.850486156187,-0.481148603423,-0.172228016782,0.124526422069,0.0025,0.0,0.0,0.0,0.0025,0.0,0.0,0.0,0.0025,0.08,0.62,-0.16,0.02,0.0,0.0,0.0,0.02,0.0,0.0,0.0,0.02,4.72603234375,-2.43234765625,-9.60490039062,0.04,0.0,0.0,0.0,0.04,0.0,0.0,0.0,0.04
1597380901737566464,28566,1596774721159684896,imu_link,-0.847850028982,-0.482620849942,-0.175050576398,0.132607463059,0.0025,0.0,0.0,0.0,0.0025,0.0,0.0,0.0,0.0025,-0.05,0.54,-0.52,0.02,0.0,0.0,0.0,0.02,0.0,0.0,0.0,0.02,3.32791125,0.665352421875,-8.5419453125,0.04,0.0,0.0,0.0,0.04,0.0,0.0,0.0,0.04
1597380901758409742,28567,1596774721179754972,imu_link,-0.846208789579,-0.485636199368,-0.17987796167,0.125427609433,0.0025,0.0,0.0,0.0,0.0025,0.0,0.0,0.0,0.0025,-0.24,0.36,-0.36,0.02,0.0,0.0,0.0,0.02,0.0,0.0,0.0,0.02,2.62846765625,2.03972460937,-7.40736046875,0.04,0.0,0.0,0.0,0.04,0.0,0.0,0.0,0.04
1597380901778683482,28568,1596774721199738979,imu_link,-0.846125317061,-0.487103807979,-0.183400494196,0.1147435698,0.0025,0.0,0.0,0.0,0.0025,0.0,0.0,0.0,0.0025,-0.26,0.05,-0.13,0.02,0.0,0.0,0.0,0.02,0.0,0.0,0.0,0.02,2.374890625,3.140984375,-8.10144140625,0.04,0.0,0.0,0.0,0.04,0.0,0.0,0.0,0.04
1597380901798951428,28569,1596774721219670057,imu_link,0.847020291552,0.488421240949,0.18541955254,-0.0980862203622,0.0025,0.0,0.0,0.0,0.0025,0.0,0.0,0.0,0.0025,-0.14,-0.09,0.11,0.02,0.0,0.0,0.0,0.02,0.0,0.0,0.0,0.02,2.78666601562,2.1833671875,-8.24508398437,0.04,0.0,0.0,0.0,0.04,0.0,0.0,0.0,0.04
1597380901818581698,28570,1596774721239845037,imu_link,0.848303964195,0.488361993985,0.184879549154,-0.0877638847549,0.0025,0.0,0.0,0.0,0.0025,0.0,0.0,0.0,0.0025,0.0,-0.19,0.17,0.02,0.0,0.0,0.0,0.02,0.0,0.0,0.0,0.02,2.69090429687,0.541245234375,-8.14472570312,0.04,0.0,0.0,0.0,0.04,0.0,0.0,0.0,0.04
1597380901839125058,28571,1596774721259685039,imu_link,0.850012925495,0.488018108039,0.179957561664,-0.0832564034572,0.0025,0.0,0.0,0.0,0.0025,0.0,0.0,0.0,0.0025,-0.05,-0.33,0.1,0.02,0.0,0.0,0.0,0.02,0.0,0.0,0.0,0.02,2.07802929688,0.340145625,-8.93456835937,0.04,0.0,0.0,0.0,0.04,0.0,0.0,0.0,0.04
1597380901858494924,28572,1596774721279745101,imu_link,0.852698362519,0.487568299117,0.17091748465,-0.0772649318575,0.0025,0.0,0.0,0.0,0.0025,0.0,0.0,0.0,0.0025,-0.07,-0.37,0.15,0.02,0.0,0.0,0.0,0.02,0.0,0.0,0.0,0.02,1.872333125,0.526689453125,-8.78134960937,0.04,0.0,0.0,0.0,0.04,0.0,0.0,0.0,0.04
1597380901877673711,28573,1596774721299598932,imu_link,0.855384609818,0.486436836134,0.163214867549,-0.0711145607369,0.0025,0.0,0.0,0.0,0.0025,0.0,0.0,0.0,0.0025,-0.1,-0.33,0.25,0.02,0.0,0.0,0.0,0.02,0.0,0.0,0.0,0.02,2.31743359375,0.6082784375,-9.61945617187,0.04,0.0,0.0,0.0,0.04,0.0,0.0,0.0,0.04
1597380901898881834,28574,1596774721319514036,imu_link,0.857674132988,0.485130814982,0.156973506566,-0.0663512787616,0.0025,0.0,0.0,0.0,0.0025,0.0,0.0,0.0,0.0025,-0.02,-0.16,0.26,0.02,0.0,0.0,0.0,0.02,0.0,0.0,0.0,0.02,2.72920898437,0.732385625,-8.64728320312,0.04,0.0,0.0,0.0,0.04,0.0,0.0,0.0,0.04
1597380901917852018,28575,1596774721339478969,imu_link,0.858860065818,0.484043515714,0.154245777184,-0.0653414298767,0.0025,0.0,0.0,0.0,0.0025,0.0,0.0,0.0,0.0025,0.18,-0.13,0.26,0.02,0.0,0.0,0.0,0.02,0.0,0.0,0.0,0.02,3.04024304688,0.469232421875,-8.12557335937,0.04,0.0,0.0,0.0,0.04,0.0,0.0,0.0,0.04
1597380901937737875,28576,1596774721359472036,imu_link,0.859615960968,0.482396999175,0.153889162746,-0.0683495459061,0.0025,0.0,0.0,0.0,0.0025,0.0,0.0,0.0,0.0025,0.3,0.06,0.29,0.02,0.0,0.0,0.0,0.02,0.0,0.0,0.0,0.02,3.54816320312,0.119893671875,-7.78542773437,0.04,0.0,0.0,0.0,0.04,0.0,0.0,0.0,0.04
1597380901958842185,28577,1596774721379892110,imu_link,0.860160429721,0.480327237419,0.154606709561,-0.0742061014608,0.0025,0.0,0.0,0.0,0.0025,0.0,0.0,0.0,0.0025,0.37,0.08,0.32,0.02,0.0,0.0,0.0,0.02,0.0,0.0,0.0,0.02,4.017395625,-0.598702265625,-7.11509570312,0.04,0.0,0.0,0.0,0.04,0.0,0.0,0.0,0.04
1597380901978621786,28578,1596774721399553060,imu_link,0.860049365375,0.478573055136,0.156376392776,-0.0826398438833,0.0025,0.0,0.0,0.0,0.0025,0.0,0.0,0.0,0.0025,0.35,0.11,0.23,0.02,0.0,0.0,0.0,0.02,0.0,0.0,0.0,0.02,4.4004425,-1.642505,-6.64126671875,0.04,0.0,0.0,0.0,0.04,0.0,0.0,0.0,0.04
1597380901998195089,28579,1596774721419539928,imu_link,-0.859626003226,-0.477036919736,-0.157896539702,0.092453201872,0.0025,0.0,0.0,0.0,0.0025,0.0,0.0,0.0,0.0025,0.21,0.02,0.06,0.02,0.0,0.0,0.0,0.02,0.0,0.0,0.0,0.02,4.46249609375,-1.86275695312,-6.18161046875,0.04,0.0,0.0,0.0,0.04,0.0,0.0,0.0,0.04
1597380902016913387,28580,1596774721439410924,imu_link,-0.858506271654,-0.476854744356,-0.159631363114,0.100470703322,0.0025,0.0,0.0,0.0,0.0025,0.0,0.0,0.0,0.0025,0.09,-0.04,-0.11,0.02,0.0,0.0,0.0,0.02,0.0,0.0,0.0,0.02,4.38588671875,-1.46055773438,-6.15747851562,0.04,0.0,0.0,0.0,0.04,0.0,0.0,0.0,0.04
1597380902038096796,28581,1596774721459606885,imu_link,-0.85673267396,-0.478094990702,-0.162323193004,0.105287635782,0.0025,0.0,0.0,0.0,0.0025,0.0,0.0,0.0,0.0025,-0.04,-0.03,-0.24,0.02,0.0,0.0,0.0,0.02,0.0,0.0,0.0,0.02,4.14648242187,-0.75153796875,-6.31069726562,0.04,0.0,0.0,0.0,0.04,0.0,0.0,0.0,0.04
1597380902057636239,28582,1596774721479443073,imu_link,-0.854593329686,-0.48067450097,-0.164867298337,0.106962792189,0.0025,0.0,0.0,0.0,0.0025,0.0,0.0,0.0,0.0025,-0.05,-0.08,-0.38,0.02,0.0,0.0,0.0,0.02,0.0,0.0,0.0,0.02,3.96453515625,0.167391484375,-6.06631335938,0.04,0.0,0.0,0.0,0.04,0.0,0.0,0.0,0.04
1597380902077098887,28583,1596774721499413013,imu_link,-0.852714025748,-0.48353970064,-0.166864613593,0.105945027861,0.0025,0.0,0.0,0.0,0.0025,0.0,0.0,0.0,0.0025,-0.02,-0.19,-0.36,0.02,0.0,0.0,0.0,0.02,0.0,0.0,0.0,0.02,3.66767382812,1.00549804687,-6.98102929687,0.04,0.0,0.0,0.0,0.04,0.0,0.0,0.0,0.04
1597380902098027058,28584,1596774721519423007,imu_link,-0.851109997032,-0.486186586074,-0.169242542727,0.102914227424,0.0025,0.0,0.0,0.0,0.0025,0.0,0.0,0.0,0.0025,0.06,-0.14,-0.26,0.02,0.0,0.0,0.0,0.02,0.0,0.0,0.0,0.02,3.4091171875,1.20659765625,-7.66591710937,0.04,0.0,0.0,0.0,0.04,0.0,0.0,0.0,0.04
1597380902118543120,28585,1596774721539310932,imu_link,-0.850434756054,-0.487640763366,-0.171041928299,0.0985488222285,0.0025,0.0,0.0,0.0,0.0025,0.0,0.0,0.0,0.0025,0.05,-0.1,-0.09,0.02,0.0,0.0,0.0,0.02,0.0,0.0,0.0,0.02,3.45699804687,1.09168359375,-8.79092578125,0.04,0.0,0.0,0.0,0.04,0.0,0.0,0.0,0.04
1597380902137335420,28586,1596774721559252977,imu_link,0.850212042196,0.48879881186,0.171682899387,-0.0934889666572,0.0025,0.0,0.0,0.0,0.0025,0.0,0.0,0.0,0.0025,0.08,-0.07,-0.01,0.02,0.0,0.0,0.0,0.02,0.0,0.0,0.0,0.02,3.8258721875,-0.15321875,-9.04948242188,0.04,0.0,0.0,0.0,0.04,0.0,0.0,0.0,0.04
1597380902157472536,28587,1596774721579236984,imu_link,0.850409649674,0.488813782551,0.169719388858,-0.0951832063731,0.0025,0.0,0.0,0.0,0.0025,0.0,0.0,0.0,0.0025,0.15,-0.1,-0.02,0.02,0.0,0.0,0.0,0.02,0.0,0.0,0.0,0.02,4.49122460937,-1.22575,-10.1315898437,0.04,0.0,0.0,0.0,0.04,0.0,0.0,0.0,0.04
1597380902177451035,28588,1596774721599208116,imu_link,-0.850478750135,-0.488726063335,-0.167443551147,0.0989716513247,0.0025,0.0,0.0,0.0,0.0025,0.0,0.0,0.0,0.0025,-0.0,-0.09,-0.08,0.02,0.0,0.0,0.0,0.02,0.0,0.0,0.0,0.02,4.4050390625,-1.16369640625,-10.9838691406,0.04,0.0,0.0,0.0,0.04,0.0,0.0,0.0,0.04
1597380902198311417,28589,1596774721619242906,imu_link,-0.85084640817,-0.488565170087,-0.16464280027,0.101277897891,0.0025,0.0,0.0,0.0,0.0025,0.0,0.0,0.0,0.0025,0.04,-0.07,-0.04,0.02,0.0,0.0,0.0,0.02,0.0,0.0,0.0,0.02,4.979609375,-0.51251671875,-11.5584394531,0.04,0.0,0.0,0.0,0.04,0.0,0.0,0.0,0.04
1597380902217738950,28590,1596774721639317035,imu_link,-0.850194315583,-0.49002655285,-0.16226594827,0.103505387708,0.0025,0.0,0.0,0.0,0.0025,0.0,0.0,0.0,0.0025,0.28,-0.12,-0.13,0.02,0.0,0.0,0.0,0.02,0.0,0.0,0.0,0.02,6.56925390625,-0.17237109375,-13.0094210156,0.04,0.0,0.0,0.0,0.04,0.0,0.0,0.0,0.04
1597380902238135980,28591,1596774721659322023,imu_link,-0.848708805016,-0.492413510495,-0.161969796111,0.104824062687,0.0025,0.0,0.0,0.0,0.0025,0.0,0.0,0.0,0.0025,0.19,0.04,-0.24,0.02,0.0,0.0,0.0,0.02,0.0,0.0,0.0,0.02,5.74072351562,-0.105337890625,-13.406640625,0.04,0.0,0.0,0.0,0.04,0.0,0.0,0.0,0.04
1597380902257907413,28592,1596774721679193973,imu_link,-0.848295424894,-0.493004288337,-0.161621324818,0.105925403699,0.0025,0.0,0.0,0.0,0.0025,0.0,0.0,0.0,0.0025,0.13,0.05,-0.02,0.02,0.0,0.0,0.0,0.02,0.0,0.0,0.0,0.02,5.35308007812,1.69038585937,-12.8753546094,0.04,0.0,0.0,0.0,0.04,0.0,0.0,0.0,0.04
1597380902278089907,28593,1596774721699513912,imu_link,-0.849768694399,-0.490130034618,-0.162877041724,0.105530964478,0.0025,0.0,0.0,0.0,0.0025,0.0,0.0,0.0,0.0025,-0.0,0.11,0.31,0.02,0.0,0.0,0.0,0.02,0.0,0.0,0.0,0.02,4.75476085937,0.598702265625,-13.6318721875,0.04,0.0,0.0,0.0,0.04,0.0,0.0,0.0,0.04
1597380902298957131,28594,1596774721719336986,imu_link,-0.852295543262,-0.48531695309,-0.164476550216,0.104915329713,0.0025,0.0,0.0,0.0,0.0025,0.0,0.0,0.0,0.0025,-0.19,0.16,0.5,0.02,0.0,0.0,0.0,0.02,0.0,0.0,0.0,0.02,4.11775390625,-0.488384765625,-12.52103625,0.04,0.0,0.0,0.0,0.04,0.0,0.0,0.0,0.04
1597380902317943862,28595,1596774721739243030,imu_link,-0.854964455664,-0.480458988514,-0.165326229773,0.104221771512,0.0025,0.0,0.0,0.0,0.0025,0.0,0.0,0.0,0.0025,-0.23,0.23,0.5,0.02,0.0,0.0,0.0,0.02,0.0,0.0,0.0,0.02,3.58646789062,-1.9489425,-11.5151551562,0.04,0.0,0.0,0.0,0.04,0.0,0.0,0.0,0.04
1597380902337477091,28596,1596774721759299993,imu_link,-0.857122030696,-0.476726986739,-0.163108919,0.107091947186,0.0025,0.0,0.0,0.0,0.0025,0.0,0.0,0.0,0.0025,-0.13,0.27,0.28,0.02,0.0,0.0,0.0,0.02,0.0,0.0,0.0,0.02,3.030666875,-2.82497070312,-9.44708507812,0.04,0.0,0.0,0.0,0.04,0.0,0.0,0.0,0.04
1597380902358150513,28597,1596774721779278039,imu_link,-0.85787481181,-0.475596729395,-0.156131415853,0.116110030721,0.0025,0.0,0.0,0.0,0.0025,0.0,0.0,0.0,0.0025,0.0,0.23,-0.11,0.02,0.0,0.0,0.0,0.02,0.0,0.0,0.0,0.02,1.63752539062,-1.84360460938,-9.45168164062,0.04,0.0,0.0,0.0,0.04,0.0,0.0,0.0,0.04
1597380902378495184,28598,1596774721799210071,imu_link,-0.858512707191,-0.477103588758,-0.146188068544,0.118140364829,0.0025,0.0,0.0,0.0,0.0025,0.0,0.0,0.0,0.0025,0.03,0.3,-0.25,0.02,0.0,0.0,0.0,0.02,0.0,0.0,0.0,0.02,1.2977628125,-0.483788203125,-7.76627539062,0.04,0.0,0.0,0.0,0.04,0.0,0.0,0.0,0.04
1597380902398950229,28599,1596774721819197893,imu_link,-0.858671280731,-0.478132773274,-0.143057390179,0.116650185958,0.0025,0.0,0.0,0.0,0.0025,0.0,0.0,0.0,0.0025,0.07,0.19,-0.12,0.02,0.0,0.0,0.0,0.02,0.0,0.0,0.0,0.02,1.78614757813,-0.63202734375,-7.64676476562,0.04,0.0,0.0,0.0,0.04,0.0,0.0,0.0,0.04
1597380902417323370,28600,1596774721839098930,imu_link,-0.858919499574,-0.478724958823,-0.140033438494,0.116061807473,0.0025,0.0,0.0,0.0,0.0025,0.0,0.0,0.0,0.0025,0.09,0.06,-0.08,0.02,0.0,0.0,0.0,0.02,0.0,0.0,0.0,0.02,2.24082421875,-0.536265625,-7.21085742187,0.04,0.0,0.0,0.0,0.04,0.0,0.0,0.0,0.04
1597380902438273253,28601,1596774721859142065,imu_link,-0.858648675884,-0.479824488654,-0.137675921889,0.11634539966,0.0025,0.0,0.0,0.0,0.0025,0.0,0.0,0.0,0.0025,0.16,-0.04,-0.09,0.02,0.0,0.0,0.0,0.02,0.0,0.0,0.0,0.02,2.55185828125,-0.541245234375,-7.6609375,0.04,0.0,0.0,0.0,0.04,0.0,0.0,0.0,0.04
1597380902458040078,28602,1596774721879167079,imu_link,-0.858387757974,-0.480743916222,-0.136031688201,0.116409294218,0.0025,0.0,0.0,0.0,0.0025,0.0,0.0,0.0,0.0025,0.13,-0.02,-0.11,0.02,0.0,0.0,0.0,0.02,0.0,0.0,0.0,0.02,2.88702429687,-0.59372265625,-7.05763867187,0.04,0.0,0.0,0.0,0.04,0.0,0.0,0.0,0.04
1597380902477566047,28603,1596774721899137973,imu_link,-0.857998319489,-0.481519204024,-0.135344409406,0.116876134228,0.0025,0.0,0.0,0.0,0.0025,0.0,0.0,0.0,0.0025,0.09,-0.1,-0.09,0.02,0.0,0.0,0.0,0.02,0.0,0.0,0.0,0.02,3.18426867187,-1.13496789062,-7.44068554687,0.04,0.0,0.0,0.0,0.04,0.0,0.0,0.0,0.04
1597380902498466293,28604,1596774721919011116,imu_link,-0.857362162062,-0.482498467098,-0.134793546123,0.118135736493,0.0025,0.0,0.0,0.0,0.0025,0.0,0.0,0.0,0.0025,-0.02,-0.1,-0.13,0.02,0.0,0.0,0.0,0.02,0.0,0.0,0.0,0.02,3.38996484375,-1.59922070312,-7.33534765625,0.04,0.0,0.0,0.0,0.04,0.0,0.0,0.0,0.04
1597380902516646608,28605,1596774721938971042,imu_link,-0.856473865391,-0.483753459227,-0.134257041923,0.120042306219,0.0025,0.0,0.0,0.0,0.0025,0.0,0.0,0.0,0.0025,-0.12,-0.16,-0.24,0.02,0.0,0.0,0.0,0.02,0.0,0.0,0.0,0.02,3.3325078125,-1.4938828125,-7.25873828125,0.04,0.0,0.0,0.0,0.04,0.0,0.0,0.0,0.04
1597380902538013836,28606,1596774721958930015,imu_link,-0.855176003347,-0.485913308265,-0.134211361627,0.120621600723,0.0025,0.0,0.0,0.0,0.0025,0.0,0.0,0.0,0.0025,-0.17,-0.17,-0.35,0.02,0.0,0.0,0.0,0.02,0.0,0.0,0.0,0.02,3.53858703125,-1.48430664062,-7.26831445312,0.04,0.0,0.0,0.0,0.04,0.0,0.0,0.0,0.04
1597380902557722158,28607,1596774721978966951,imu_link,-0.85341807446,-0.488771740129,-0.135084326239,0.120548749646,0.0025,0.0,0.0,0.0,0.0025,0.0,0.0,0.0,0.0025,-0.28,-0.19,-0.43,0.02,0.0,0.0,0.0,0.02,0.0,0.0,0.0,0.02,3.47155382812,-0.909736328125,-7.48396984375,0.04,0.0,0.0,0.0,0.04,0.0,0.0,0.0,0.04
1597380902577247289,28608,1596774721998953104,imu_link,-0.85162313381,-0.491855524656,-0.137485220336,0.117957598373,0.0025,0.0,0.0,0.0,0.0025,0.0,0.0,0.0,0.0025,-0.37,-0.14,-0.45,0.02,0.0,0.0,0.0,0.02,0.0,0.0,0.0,0.02,3.61979296875,0.0,-7.2395859375,0.04,0.0,0.0,0.0,0.04,0.0,0.0,0.0,0.04
1597380902598135876,28609,1596774722019001960,imu_link,-0.849643401488,-0.495133007425,-0.142090112424,0.112959263532,0.0025,0.0,0.0,0.0,0.0025,0.0,0.0,0.0,0.0025,-0.41,-0.13,-0.42,0.02,0.0,0.0,0.0,0.02,0.0,0.0,0.0,0.02,3.753859375,0.885987421875,-7.05304210937,0.04,0.0,0.0,0.0,0.04,0.0,0.0,0.0,0.04
1597380902617455127,28610,1596774722039202928,imu_link,-0.847810615183,-0.497945163178,-0.147838881455,0.10682434358,0.0025,0.0,0.0,0.0,0.0025,0.0,0.0,0.0,0.0025,-0.34,-0.13,-0.32,0.02,0.0,0.0,0.0,0.02,0.0,0.0,0.0,0.02,4.15605859375,1.455578125,-6.4305909375,0.04,0.0,0.0,0.0,0.04,0.0,0.0,0.0,0.04
1597380902638041422,28611,1596774722058945894,imu_link,-0.84633585203,-0.499922329199,-0.153589709793,0.101012332824,0.0025,0.0,0.0,0.0,0.0025,0.0,0.0,0.0,0.0025,-0.24,-0.27,-0.19,0.02,0.0,0.0,0.0,0.02,0.0,0.0,0.0,0.02,4.52493273437,1.20659765625,-6.98102929687,0.04,0.0,0.0,0.0,0.04,0.0,0.0,0.0,0.04
1597380902659525168,28612,1596774722078892946,imu_link,-0.844895324041,-0.50122972837,-0.160123984714,0.0963377409471,0.0025,0.0,0.0,0.0,0.0025,0.0,0.0,0.0,0.0025,-0.21,-0.28,-0.12,0.02,0.0,0.0,0.0,0.02,0.0,0.0,0.0,0.02,4.323833125,1.1445440625,-8.05356054687,0.04,0.0,0.0,0.0,0.04,0.0,0.0,0.0,0.04
1597380902677584078,28613,1596774722098890066,imu_link,0.843618647124,0.502285387449,0.165864773534,-0.092227136354,0.0025,0.0,0.0,0.0,0.0025,0.0,0.0,0.0,0.0025,-0.12,-0.18,-0.04,0.02,0.0,0.0,0.0,0.02,0.0,0.0,0.0,0.02,4.41001867187,0.924292109375,-8.51819640625,0.04,0.0,0.0,0.0,0.04,0.0,0.0,0.0,0.04
1597380902697027388,28614,1596774722118673086,imu_link,0.843242788915,0.501803369132,0.1704740357,-0.0898531069218,0.0025,0.0,0.0,0.0,0.0025,0.0,0.0,0.0,0.0025,-0.04,-0.15,0.1,0.02,0.0,0.0,0.0,0.02,0.0,0.0,0.0,0.02,4.13690625,0.493364375,-8.963296875,0.04,0.0,0.0,0.0,0.04,0.0,0.0,0.0,0.04
1597380902716581143,28615,1596774722138724088,imu_link,0.843980648812,0.500283450639,0.171552022138,-0.0893478435555,0.0025,0.0,0.0,0.0,0.0025,0.0,0.0,0.0,0.0025,0.03,-0.14,0.21,0.02,0.0,0.0,0.0,0.02,0.0,0.0,0.0,0.02,4.12733007812,0.086185546875,-9.63860851562,0.04,0.0,0.0,0.0,0.04,0.0,0.0,0.0,0.04
1597380902737403686,28616,1596774722158663988,imu_link,0.845423481554,0.497885483745,0.170674726828,-0.0907706975543,0.0025,0.0,0.0,0.0,0.0025,0.0,0.0,0.0,0.0025,0.06,-0.06,0.29,0.02,0.0,0.0,0.0,0.02,0.0,0.0,0.0,0.02,4.74020507812,-0.790225703125,-10.2606766406,0.04,0.0,0.0,0.0,0.04,0.0,0.0,0.0,0.04
1597380902758632264,28617,1596774722178788900,imu_link,0.846210801316,0.496039059823,0.169609946092,-0.0954201082219,0.0025,0.0,0.0,0.0,0.0025,0.0,0.0,0.0,0.0025,0.08,-0.01,0.2,0.02,0.0,0.0,0.0,0.02,0.0,0.0,0.0,0.02,4.87427148437,-1.58504796875,-10.9597371875,0.04,0.0,0.0,0.0,0.04,0.0,0.0,0.0,0.04
1597380902778597360,28618,1596774722199742078,imu_link,-0.84663089257,-0.494928852368,-0.16845163658,0.0994263997808,0.0025,0.0,0.0,0.0,0.0025,0.0,0.0,0.0,0.0025,-0.05,0.04,0.03,0.02,0.0,0.0,0.0,0.02,0.0,0.0,0.0,0.02,4.46249609375,-1.11581554687,-10.9788895312,0.04,0.0,0.0,0.0,0.04,0.0,0.0,0.0,0.04
1597380902798019935,28619,1596774722218784093,imu_link,-0.846790710729,-0.494447922893,-0.168283023889,0.100735136081,0.0025,0.0,0.0,0.0,0.0025,0.0,0.0,0.0,0.0025,-0.18,0.1,-0.06,0.02,0.0,0.0,0.0,0.02,0.0,0.0,0.0,0.02,3.57191210937,0.100741328125,-11.0842274219,0.04,0.0,0.0,0.0,0.04,0.0,0.0,0.0,0.04
1597380902816959541,28620,1596774722238657951,imu_link,-0.847326264002,-0.49458022146,-0.166793331522,0.0980234228775,0.0025,0.0,0.0,0.0,0.0025,0.0,0.0,0.0,0.0025,-0.11,0.07,0.01,0.02,0.0,0.0,0.0,0.02,0.0,0.0,0.0,0.02,4.7880859375,1.69498242187,-12.0993016406,0.04,0.0,0.0,0.0,0.04,0.0,0.0,0.0,0.04
1597380902837011694,28621,1596774722258776903,imu_link,0.848067704736,0.492998831911,0.169163101595,-0.0954838466793,0.0025,0.0,0.0,0.0,0.0025,0.0,0.0,0.0,0.0025,-0.09,0.14,0.23,0.02,0.0,0.0,0.0,0.02,0.0,0.0,0.0,0.02,5.39138476562,0.564994140625,-12.0851289062,0.04,0.0,0.0,0.0,0.04,0.0,0.0,0.0,0.04
1597380902856815311,28622,1596774722278678894,imu_link,0.849001321364,0.491006019336,0.17093201258,-0.0942978916749,0.0025,0.0,0.0,0.0,0.0025,0.0,0.0,0.0,0.0025,-0.16,0.06,0.24,0.02,0.0,0.0,0.0,0.02,0.0,0.0,0.0,0.02,5.77902820312,0.8381065625,-12.2142157031,0.04,0.0,0.0,0.0,0.04,0.0,0.0,0.0,0.04
1597380902876764000,28623,1596774722298748016,imu_link,0.849939095169,0.489194343334,0.172278131552,-0.0928044952715,0.0025,0.0,0.0,0.0,0.0025,0.0,0.0,0.0,0.0025,-0.14,-0.02,0.21,0.02,0.0,0.0,0.0,0.02,0.0,0.0,0.0,0.02,5.35308007812,0.316013671875,-12.4061221875,0.04,0.0,0.0,0.0,0.04,0.0,0.0,0.0,0.04
1597380902897549053,28624,1596774722318753957,imu_link,0.849955842932,0.488822614081,0.174166086798,-0.0910697053844,0.0025,0.0,0.0,0.0,0.0025,0.0,0.0,0.0,0.0025,-0.23,0.08,0.04,0.02,0.0,0.0,0.0,0.02,0.0,0.0,0.0,0.02,3.18886523437,0.526689453125,-10.8114980469,0.04,0.0,0.0,0.0,0.04,0.0,0.0,0.0,0.04
1597380902916760513,28625,1596774722338804960,imu_link,0.850190708651,0.489800903861,0.172773833985,-0.0861396296196,0.0025,0.0,0.0,0.0,0.0025,0.0,0.0,0.0,0.0025,-0.22,0.1,-0.06,0.02,0.0,0.0,0.0,0.02,0.0,0.0,0.0,0.02,1.2977628125,2.09258507812,-10.7011805469,0.04,0.0,0.0,0.0,0.04,0.0,0.0,0.0,0.04
1597380902937136949,28626,1596774722358761072,imu_link,0.850992448027,0.491301473862,0.169373630334,-0.0758108734252,0.0025,0.0,0.0,0.0,0.0025,0.0,0.0,0.0,0.0025,-0.02,0.33,0.1,0.02,0.0,0.0,0.0,0.02,0.0,0.0,0.0,0.02,1.302359375,2.38944640625,-9.16439648437,0.04,0.0,0.0,0.0,0.04,0.0,0.0,0.0,0.04
1597380902957279230,28627,1596774722378735065,imu_link,0.852912858082,0.490694428849,0.166219597816,-0.0642625809997,0.0025,0.0,0.0,0.0,0.0025,0.0,0.0,0.0,0.0025,0.09,0.21,0.39,0.02,0.0,0.0,0.0,0.02,0.0,0.0,0.0,0.02,2.6093153125,0.761114140625,-9.45666125,0.04,0.0,0.0,0.0,0.04,0.0,0.0,0.0,0.04
1597380902976991950,28628,1596774722398535013,imu_link,0.854444363407,0.48880349138,0.164796229221,-0.0619530426317,0.0025,0.0,0.0,0.0,0.0025,0.0,0.0,0.0,0.0025,-0.08,0.21,0.35,0.02,0.0,0.0,0.0,0.02,0.0,0.0,0.0,0.02,2.7625340625,1.03920617187,-7.29704296875,0.04,0.0,0.0,0.0,0.04,0.0,0.0,0.0,0.04
1597380902996699574,28629,1596774722418487071,imu_link,0.855179566482,0.487465913063,0.165308028469,-0.0609766217289,0.0025,0.0,0.0,0.0,0.0025,0.0,0.0,0.0,0.0025,0.04,-0.01,0.27,0.02,0.0,0.0,0.0,0.02,0.0,0.0,0.0,0.02,2.79126257813,0.90016015625,-7.93404992187,0.04,0.0,0.0,0.0,0.04,0.0,0.0,0.0,0.04
1597380903017298435,28630,1596774722438494920,imu_link,0.855434418298,0.487272782883,0.164826407348,-0.0602448876965,0.0025,0.0,0.0,0.0,0.0025,0.0,0.0,0.0,0.0025,0.09,-0.03,0.16,0.02,0.0,0.0,0.0,0.02,0.0,0.0,0.0,0.02,2.47524890625,0.718212890625,-7.82373242187,0.04,0.0,0.0,0.0,0.04,0.0,0.0,0.0,0.04
1597380903036492302,28631,1596774722458416938,imu_link,0.855929393007,0.487374472542,0.162600431231,-0.0584131617407,0.0025,0.0,0.0,0.0,0.0025,0.0,0.0,0.0,0.0025,0.01,-0.14,0.11,0.02,0.0,0.0,0.0,0.02,0.0,0.0,0.0,0.02,2.03512804687,0.6082784375,-8.02981164062,0.04,0.0,0.0,0.0,0.04,0.0,0.0,0.0,0.04
1597380903057424941,28632,1596774722478368997,imu_link,0.856740094846,0.487676110764,0.158360828702,-0.0555901862494,0.0025,0.0,0.0,0.0,0.0025,0.0,0.0,0.0,0.0025,-0.02,-0.21,0.11,0.02,0.0,0.0,0.0,0.02,0.0,0.0,0.0,0.02,1.608796875,0.9913253125,-8.33624914062,0.04,0.0,0.0,0.0,0.04,0.0,0.0,0.0,0.04
1597380903076863084,28633,1596774722498451948,imu_link,0.858029136408,0.487551061901,0.153373841135,-0.0505611310226,0.0025,0.0,0.0,0.0,0.0025,0.0,0.0,0.0,0.0025,-0.04,-0.21,0.2,0.02,0.0,0.0,0.0,0.02,0.0,0.0,0.0,0.02,2.0638565625,0.82355078125,-7.79998351562,0.04,0.0,0.0,0.0,0.04,0.0,0.0,0.0,0.04
1597380903096927524,28634,1596774722518513917,imu_link,0.859218576039,0.486574558108,0.150616506281,-0.0479927705754,0.0025,0.0,0.0,0.0,0.0025,0.0,0.0,0.0,0.0025,-0.03,-0.18,0.25,0.02,0.0,0.0,0.0,0.02,0.0,0.0,0.0,0.02,2.53768554687,0.502940546875,-7.55559960937,0.04,0.0,0.0,0.0,0.04,0.0,0.0,0.0,0.04
1597380903116417400,28635,1596774722538410902,imu_link,0.860232838181,0.48531135761,0.148927567052,-0.0478845492974,0.0025,0.0,0.0,0.0,0.0025,0.0,0.0,0.0,0.0025,0.03,-0.18,0.26,0.02,0.0,0.0,0.0,0.02,0.0,0.0,0.0,0.02,2.9157528125,0.3784503125,-7.20626085937,0.04,0.0,0.0,0.0,0.04,0.0,0.0,0.0,0.04
1597380903137812203,28636,1596774722558410882,imu_link,0.86098983323,0.484081493861,0.14812403804,-0.0492024768743,0.0025,0.0,0.0,0.0,0.0025,0.0,0.0,0.0,0.0025,0.09,-0.17,0.25,0.02,0.0,0.0,0.0,0.02,0.0,0.0,0.0,0.02,3.33748742187,-0.105337890625,-6.72247265625,0.04,0.0,0.0,0.0,0.04,0.0,0.0,0.0,0.04
1597380903156301932,28637,1596774722578417062,imu_link,0.861140475366,0.483772305792,0.146935880303,-0.053021551406,0.0025,0.0,0.0,0.0,0.0025,0.0,0.0,0.0,0.0025,0.21,-0.21,0.16,0.02,0.0,0.0,0.0,0.02,0.0,0.0,0.0,0.02,3.72053429687,-0.1486221875,-7.53185070312,0.04,0.0,0.0,0.0,0.04,0.0,0.0,0.0,0.04
1597380903175850172,28638,1596774722598404884,imu_link,0.860516596149,0.484122368252,0.147226230573,-0.0588316015435,0.0025,0.0,0.0,0.0,0.0025,0.0,0.0,0.0,0.0025,0.27,-0.13,0.08,0.02,0.0,0.0,0.0,0.02,0.0,0.0,0.0,0.02,3.83544835937,-0.186543828125,-7.42153320312,0.04,0.0,0.0,0.0,0.04,0.0,0.0,0.0,0.04
1597380903196537137,28639,1596774722618314027,imu_link,0.859408289413,0.484990600792,0.148012121365,-0.0655280181298,0.0025,0.0,0.0,0.0,0.0025,0.0,0.0,0.0,0.0025,0.35,-0.07,-0.0,0.02,0.0,0.0,0.0,0.02,0.0,0.0,0.0,0.02,3.7492628125,-0.119893671875,-7.49814257812,0.04,0.0,0.0,0.0,0.04,0.0,0.0,0.0,0.04
1597380903218026678,28640,1596774722638422966,imu_link,0.85787578249,0.486679473381,0.148483150723,-0.071728557481,0.0025,0.0,0.0,0.0,0.0025,0.0,0.0,0.0,0.0025,0.4,-0.06,-0.08,0.02,0.0,0.0,0.0,0.02,0.0,0.0,0.0,0.02,3.76841515625,0.0,-7.52227453125,0.04,0.0,0.0,0.0,0.04,0.0,0.0,0.0,0.04
1597380903236312901,28641,1596774722658268928,imu_link,0.856459938482,0.488074295645,0.149209771966,-0.0774357776221,0.0025,0.0,0.0,0.0,0.0025,0.0,0.0,0.0,0.0025,0.41,-0.04,-0.06,0.02,0.0,0.0,0.0,0.02,0.0,0.0,0.0,0.02,4.22309179687,-0.292264765625,-7.99150695312,0.04,0.0,0.0,0.0,0.04,0.0,0.0,0.0,0.04
1597380903257484232,28642,1596774722678251028,imu_link,0.854827891501,0.489293489916,0.151078367968,-0.0838837491415,0.0025,0.0,0.0,0.0,0.0025,0.0,0.0,0.0,0.0025,0.3,-0.08,-0.07,0.02,0.0,0.0,0.0,0.02,0.0,0.0,0.0,0.02,4.094005,-0.17237109375,-8.07271289062,0.04,0.0,0.0,0.0,0.04,0.0,0.0,0.0,0.04
1597380903276591600,28643,1596774722698210954,imu_link,-0.853660303447,-0.490172314767,-0.152468004796,0.0880266758898,0.0025,0.0,0.0,0.0,0.0025,0.0,0.0,0.0,0.0025,0.22,-0.13,-0.07,0.02,0.0,0.0,0.0,0.02,0.0,0.0,0.0,0.02,4.11775390625,-0.35929796875,-8.55650109375,0.04,0.0,0.0,0.0,0.04,0.0,0.0,0.0,0.04
1597380903296340064,28644,1596774722718178033,imu_link,-0.85238180992,-0.49129448375,-0.153395528636,0.0924380449183,0.0025,0.0,0.0,0.0,0.0025,0.0,0.0,0.0,0.0025,0.19,-0.11,-0.12,0.02,0.0,0.0,0.0,0.02,0.0,0.0,0.0,0.02,4.213515625,-0.426331171875,-9.04948242188,0.04,0.0,0.0,0.0,0.04,0.0,0.0,0.0,0.04
1597380903316267460,28645,1596774722738125085,imu_link,-0.85078764881,-0.492865845217,-0.15482386803,0.0962974825136,0.0025,0.0,0.0,0.0,0.0025,0.0,0.0,0.0,0.0025,0.13,-0.04,-0.19,0.02,0.0,0.0,0.0,0.02,0.0,0.0,0.0,0.02,4.4050390625,-0.143642578125,-9.16439648437,0.04,0.0,0.0,0.0,0.04,0.0,0.0,0.0,0.04
1597380903336282891,28646,1596774722758131980,imu_link,-0.849038457387,-0.494535249826,-0.157756729708,0.0983940993676,0.0025,0.0,0.0,0.0,0.0025,0.0,0.0,0.0,0.0025,0.07,-0.02,-0.21,0.02,0.0,0.0,0.0,0.02,0.0,0.0,0.0,0.02,4.31885351562,-0.05286046875,-9.77267492187,0.04,0.0,0.0,0.0,0.04,0.0,0.0,0.0,0.04
1597380903356538409,28647,1596774722778189897,imu_link,-0.847662440503,-0.496160446208,-0.159834450136,0.0987225765881,0.0025,0.0,0.0,0.0,0.0025,0.0,0.0,0.0,0.0025,0.0,0.03,-0.22,0.02,0.0,0.0,0.0,0.02,0.0,0.0,0.0,0.02,4.29970117187,0.450080078125,-10.0116961719,0.04,0.0,0.0,0.0,0.04,0.0,0.0,0.0,0.04
1597380903376806914,28648,1596774722798275947,imu_link,-0.846205964641,-0.498109508221,-0.162772007155,0.0965797955703,0.0025,0.0,0.0,0.0,0.0025,0.0,0.0,0.0,0.0025,-0.07,0.05,-0.19,0.02,0.0,0.0,0.0,0.02,0.0,0.0,0.0,0.02,3.98866710937,0.986345703125,-10.3564383594,0.04,0.0,0.0,0.0,0.04,0.0,0.0,0.0,0.04
1597380903396709037,28649,1596774722818191051,imu_link,0.845412499362,0.499472307603,0.164852506113,-0.0928911787398,0.0025,0.0,0.0,0.0,0.0025,0.0,0.0,0.0,0.0025,-0.01,0.07,-0.11,0.02,0.0,0.0,0.0,0.02,0.0,0.0,0.0,0.02,3.753859375,1.44140539062,-10.7444648437,0.04,0.0,0.0,0.0,0.04,0.0,0.0,0.0,0.04
1597380903417443127,28650,1596774722838170051,imu_link,0.844890656283,0.500909866741,0.164608571497,-0.0902945320441,0.0025,0.0,0.0,0.0,0.0025,0.0,0.0,0.0,0.0025,0.26,0.05,0.0,0.02,0.0,0.0,0.0,0.02,0.0,0.0,0.0,0.02,5.38640515625,1.38394835937,-11.68752625,0.04,0.0,0.0,0.0,0.04,0.0,0.0,0.0,0.04
1597380903435770679,28651,1596774722858078002,imu_link,0.844190832963,0.501463153378,0.165157985521,-0.0927328591369,0.0025,0.0,0.0,0.0,0.0025,0.0,0.0,0.0,0.0025,0.43,0.06,0.04,0.02,0.0,0.0,0.0,0.02,0.0,0.0,0.0,0.02,5.33392773437,-0.13406640625,-12.7267324219,0.04,0.0,0.0,0.0,0.04,0.0,0.0,0.0,0.04
1597380903456984387,28652,1596774722878170013,imu_link,0.843026590059,0.502790977819,0.164645813322,-0.0969492508125,0.0025,0.0,0.0,0.0,0.0025,0.0,0.0,0.0,0.0025,0.4,0.18,-0.09,0.02,0.0,0.0,0.0,0.02,0.0,0.0,0.0,0.02,4.74020507812,0.311417109375,-12.0609969531,0.04,0.0,0.0,0.0,0.04,0.0,0.0,0.0,0.04
1597380903476123241,28653,1596774722898232936,imu_link,-0.842830384417,-0.502953028971,-0.16330128381,0.100039414524,0.0025,0.0,0.0,0.0,0.0025,0.0,0.0,0.0,0.0025,0.4,0.08,0.06,0.02,0.0,0.0,0.0,0.02,0.0,0.0,0.0,0.02,4.519953125,-0.21067578125,-12.9328116406,0.04,0.0,0.0,0.0,0.04,0.0,0.0,0.0,0.04
1597380903497079756,28654,1596774722918297052,imu_link,-0.843702656861,-0.50111228605,-0.163184313665,0.10209399272,0.0025,0.0,0.0,0.0,0.0025,0.0,0.0,0.0,0.0025,0.14,0.2,0.22,0.02,0.0,0.0,0.0,0.02,0.0,0.0,0.0,0.02,3.53360742187,-0.78524609375,-12.1904667969,0.04,0.0,0.0,0.0,0.04,0.0,0.0,0.0,0.04
1597380903516752613,28655,1596774722938077926,imu_link,-0.845933750651,-0.497487091972,-0.162547348011,0.102376962672,0.0025,0.0,0.0,0.0,0.0025,0.0,0.0,0.0,0.0025,-0.15,0.26,0.38,0.02,0.0,0.0,0.0,0.02,0.0,0.0,0.0,0.02,2.63804382812,-1.92481054687,-11.7499628906,0.04,0.0,0.0,0.0,0.04,0.0,0.0,0.0,0.04
1597380903536708213,28656,1596774722958112001,imu_link,-0.848360158707,-0.493998591109,-0.159286786971,0.104298382528,0.0025,0.0,0.0,0.0,0.0025,0.0,0.0,0.0,0.0025,-0.17,0.37,0.28,0.02,0.0,0.0,0.0,0.02,0.0,0.0,0.0,0.02,2.79126257813,-2.38944640625,-9.74394640625,0.04,0.0,0.0,0.0,0.04,0.0,0.0,0.0,0.04
1597380903556237044,28657,1596774722978104114,imu_link,-0.849989536397,-0.491862393881,-0.152843034583,0.110581102734,0.0025,0.0,0.0,0.0,0.0025,0.0,0.0,0.0,0.0025,-0.1,0.27,0.02,0.02,0.0,0.0,0.0,0.02,0.0,0.0,0.0,0.02,2.29828125,-2.4560965625,-9.74854296875,0.04,0.0,0.0,0.0,0.04,0.0,0.0,0.0,0.04
1597380903577104687,28658,1596774722998168945,imu_link,-0.850345486603,-0.492040461986,-0.146333282607,0.115738099105,0.0025,0.0,0.0,0.0,0.0025,0.0,0.0,0.0,0.0025,-0.13,0.39,-0.22,0.02,0.0,0.0,0.0,0.02,0.0,0.0,0.0,0.02,1.58504796875,-1.24490234375,-7.71839453125,0.04,0.0,0.0,0.0,0.04,0.0,0.0,0.0,0.04
1597380903596578645,28659,1596774723018229961,imu_link,-0.850133647551,-0.49333615195,-0.143371840859,0.115484794368,0.0025,0.0,0.0,0.0,0.0025,0.0,0.0,0.0,0.0025,-0.1,0.18,-0.2,0.02,0.0,0.0,0.0,0.02,0.0,0.0,0.0,0.02,2.30785742187,-0.65577625,-7.71379796875,0.04,0.0,0.0,0.0,0.04,0.0,0.0,0.0,0.04
1597380903616137217,28660,1596774723038028001,imu_link,-0.849939090023,-0.494351734059,-0.142213021831,0.113997204814,0.0025,0.0,0.0,0.0,0.0025,0.0,0.0,0.0,0.0025,-0.09,0.05,-0.18,0.02,0.0,0.0,0.0,0.02,0.0,0.0,0.0,0.02,2.58556640625,-0.15321875,-7.21085742187,0.04,0.0,0.0,0.0,0.04,0.0,0.0,0.0,0.04
1597380903636780061,28661,1596774723058062076,imu_link,-0.849721112073,-0.49542478965,-0.141664952869,0.111621461313,0.0025,0.0,0.0,0.0,0.0025,0.0,0.0,0.0,0.0025,-0.06,-0.11,-0.13,0.02,0.0,0.0,0.0,0.02,0.0,0.0,0.0,0.02,2.41817492187,0.388026484375,-7.25414171875,0.04,0.0,0.0,0.0,0.04,0.0,0.0,0.0,0.04
1597380903656164239,28662,1596774723078142881,imu_link,-0.849856353643,-0.496293720359,-0.140400028068,0.108279977016,0.0025,0.0,0.0,0.0,0.0025,0.0,0.0,0.0,0.0025,0.02,-0.17,-0.04,0.02,0.0,0.0,0.0,0.02,0.0,0.0,0.0,0.02,2.92073242187,0.009576171875,-7.47899023437,0.04,0.0,0.0,0.0,0.04,0.0,0.0,0.0,0.04
1597380903676973797,28663,1596774723097923040,imu_link,-0.849982510792,-0.496766243389,-0.139376061911,0.106429996446,0.0025,0.0,0.0,0.0,0.0025,0.0,0.0,0.0,0.0025,0.04,-0.21,-0.04,0.02,0.0,0.0,0.0,0.02,0.0,0.0,0.0,0.02,3.08850695312,-0.43590734375,-7.890765625,0.04,0.0,0.0,0.0,0.04,0.0,0.0,0.0,0.04
1597380903695599941,28664,1596774723117846965,imu_link,-0.849845193302,-0.497587716591,-0.137672248322,0.105905447267,0.0025,0.0,0.0,0.0,0.0025,0.0,0.0,0.0,0.0025,0.03,-0.23,-0.06,0.02,0.0,0.0,0.0,0.02,0.0,0.0,0.0,0.02,2.93490515625,-0.627047734375,-7.76627539062,0.04,0.0,0.0,0.0,0.04,0.0,0.0,0.0,0.04
1597380903715839263,28665,1596774723137837886,imu_link,-0.849619999433,-0.498557935545,-0.135624140215,0.105791937594,0.0025,0.0,0.0,0.0,0.0025,0.0,0.0,0.0,0.0025,0.02,-0.21,-0.09,0.02,0.0,0.0,0.0,0.02,0.0,0.0,0.0,0.02,3.04981921875,-1.16829296875,-7.79040734375,0.04,0.0,0.0,0.0,0.04,0.0,0.0,0.0,0.04
1597380903737857850,28666,1596774723158055067,imu_link,-0.849141910472,-0.499654059866,-0.133517528453,0.107130322205,0.0025,0.0,0.0,0.0,0.0025,0.0,0.0,0.0,0.0025,-0.04,-0.19,-0.18,0.02,0.0,0.0,0.0,0.02,0.0,0.0,0.0,0.02,3.3325078125,-0.943444453125,-7.45524132812,0.04,0.0,0.0,0.0,0.04,0.0,0.0,0.0,0.04
1597380903757356452,28667,1596774723177910089,imu_link,-0.848112649,-0.501362017182,-0.133660422573,0.107125878161,0.0025,0.0,0.0,0.0,0.0025,0.0,0.0,0.0,0.0025,-0.16,-0.19,-0.23,0.02,0.0,0.0,0.0,0.02,0.0,0.0,0.0,0.02,3.4091171875,-0.93846484375,-7.15340039062,0.04,0.0,0.0,0.0,0.04,0.0,0.0,0.0,0.04
1597380903776961799,28668,1596774723197902917,imu_link,-0.846861212557,-0.503297544762,-0.134598095329,0.106775562917,0.0025,0.0,0.0,0.0,0.0025,0.0,0.0,0.0,0.0025,-0.2,-0.19,-0.29,0.02,0.0,0.0,0.0,0.02,0.0,0.0,0.0,0.02,3.28462695312,-0.21067578125,-6.87569140625,0.04,0.0,0.0,0.0,0.04,0.0,0.0,0.0,0.04
1597380903795580263,28669,1596774723217875003,imu_link,-0.845498904384,-0.505794346715,-0.135512875954,0.104594177505,0.0025,0.0,0.0,0.0,0.0025,0.0,0.0,0.0,0.0025,-0.15,-0.24,-0.28,0.02,0.0,0.0,0.0,0.02,0.0,0.0,0.0,0.02,3.2558984375,-0.067033203125,-6.9668565625,0.04,0.0,0.0,0.0,0.04,0.0,0.0,0.0,0.04
1597380903815312112,28670,1596774723237793922,imu_link,-0.844383549015,-0.50798297949,-0.135984843095,0.102361306896,0.0025,0.0,0.0,0.0,0.0025,0.0,0.0,0.0,0.0025,-0.11,-0.27,-0.23,0.02,0.0,0.0,0.0,0.02,0.0,0.0,0.0,0.02,3.64852148437,0.12946984375,-7.03848632812,0.04,0.0,0.0,0.0,0.04,0.0,0.0,0.0,0.04
1597380903835481621,28671,1596774723257636070,imu_link,-0.843222535434,-0.509803096282,-0.13778207622,0.100462222901,0.0025,0.0,0.0,0.0,0.0025,0.0,0.0,0.0,0.0025,-0.09,-0.28,-0.2,0.02,0.0,0.0,0.0,0.02,0.0,0.0,0.0,0.02,3.91665429687,0.627047734375,-7.21583703125,0.04,0.0,0.0,0.0,0.04,0.0,0.0,0.0,0.04
1597380903856839424,28672,1596774723277772903,imu_link,-0.842400371551,-0.510917186029,-0.140552731188,0.0978272599354,0.0025,0.0,0.0,0.0,0.0025,0.0,0.0,0.0,0.0025,-0.04,-0.33,-0.09,0.02,0.0,0.0,0.0,0.02,0.0,0.0,0.0,0.02,3.9453828125,0.330569453125,-8.13016992187,0.04,0.0,0.0,0.0,0.04,0.0,0.0,0.0,0.04
1597380903876673060,28673,1596774723297759056,imu_link,-0.841630959209,-0.511883407129,-0.142524808258,0.0965369620291,0.0025,0.0,0.0,0.0,0.0025,0.0,0.0,0.0,0.0025,0.01,-0.3,-0.01,0.02,0.0,0.0,0.0,0.02,0.0,0.0,0.0,0.02,3.99326367187,0.6511796875,-8.82463390625,0.04,0.0,0.0,0.0,0.04,0.0,0.0,0.0,0.04
1597380903896552843,28674,1596774723317728996,imu_link,-0.841422084716,-0.511866556274,-0.145274634979,0.0943227668773,0.0025,0.0,0.0,0.0,0.0025,0.0,0.0,0.0,0.0025,0.06,-0.25,0.12,0.02,0.0,0.0,0.0,0.02,0.0,0.0,0.0,0.02,3.7921640625,0.105337890625,-10.3231132812,0.04,0.0,0.0,0.0,0.04,0.0,0.0,0.0,0.04
1597380903915627259,28675,1596774723337682962,imu_link,-0.842294127913,-0.510686646559,-0.144492966356,0.0941357200145,0.0025,0.0,0.0,0.0,0.0025,0.0,0.0,0.0,0.0025,0.07,-0.07,0.22,0.02,0.0,0.0,0.0,0.02,0.0,0.0,0.0,0.02,4.1323096875,-0.81895421875,-10.1170340625,0.04,0.0,0.0,0.0,0.04,0.0,0.0,0.0,0.04
1597380903935744618,28676,1596774723357572078,imu_link,-0.843296150006,-0.508637779422,-0.143203698503,0.0981423123041,0.0025,0.0,0.0,0.0,0.0025,0.0,0.0,0.0,0.0025,0.09,-0.06,0.25,0.02,0.0,0.0,0.0,0.02,0.0,0.0,0.0,0.02,4.21849523437,-2.068453125,-10.7444648437,0.04,0.0,0.0,0.0,0.04,0.0,0.0,0.0,0.04
1597380903956439682,28677,1596774723377640962,imu_link,-0.843688606948,-0.507369194002,-0.141109240753,0.104183576723,0.0025,0.0,0.0,0.0,0.0025,0.0,0.0,0.0,0.0025,0.04,0.06,0.09,0.02,0.0,0.0,0.0,0.02,0.0,0.0,0.0,0.02,3.95495898437,-2.09718164062,-10.9118563281,0.04,0.0,0.0,0.0,0.04,0.0,0.0,0.0,0.04
1597380903976180467,28678,1596774723397744894,imu_link,-0.843133503202,-0.507560690981,-0.139794275275,0.109387391186,0.0025,0.0,0.0,0.0,0.0025,0.0,0.0,0.0,0.0025,0.0,0.19,-0.09,0.02,0.0,0.0,0.0,0.02,0.0,0.0,0.0,0.02,3.77301171875,-1.84820117187,-10.9693133594,0.04,0.0,0.0,0.0,0.04,0.0,0.0,0.0,0.04
1597380903996628740,28679,1596774723417691946,imu_link,-0.842053365932,-0.508698294507,-0.139678184546,0.112526347358,0.0025,0.0,0.0,0.0,0.0025,0.0,0.0,0.0,0.0025,-0.11,0.26,-0.22,0.02,0.0,0.0,0.0,0.02,0.0,0.0,0.0,0.02,3.064375,-0.564994140625,-10.6341473437,0.04,0.0,0.0,0.0,0.04,0.0,0.0,0.0,0.04
1597380904015443800,28680,1596774723437532901,imu_link,-0.841642515868,-0.509745811658,-0.139163481418,0.111492638414,0.0025,0.0,0.0,0.0,0.0025,0.0,0.0,0.0,0.0025,-0.02,0.25,-0.18,0.02,0.0,0.0,0.0,0.02,0.0,0.0,0.0,0.02,3.84962109375,0.871431640625,-11.304479375,0.04,0.0,0.0,0.0,0.04,0.0,0.0,0.0,0.04
1597380904035026108,28681,1596774723457576990,imu_link,-0.84082386432,-0.51079067649,-0.140918151317,0.110680570249,0.0025,0.0,0.0,0.0,0.0025,0.0,0.0,0.0,0.0025,0.25,0.22,0.0,0.02,0.0,0.0,0.0,0.02,0.0,0.0,0.0,0.02,5.57333203125,-0.090782109375,-12.2479238281,0.04,0.0,0.0,0.0,0.04,0.0,0.0,0.0,0.04
1597380904055583221,28682,1596774723477641105,imu_link,-0.840372282854,-0.51067380427,-0.14275953023,0.112278263127,0.0025,0.0,0.0,0.0,0.0025,0.0,0.0,0.0,0.0025,0.11,0.14,0.01,0.02,0.0,0.0,0.0,0.02,0.0,0.0,0.0,0.02,6.15747851562,0.28728515625,-11.6254726562,0.04,0.0,0.0,0.0,0.04,0.0,0.0,0.0,0.04
1597380904075856752,28683,1596774723497567892,imu_link,-0.840234854877,-0.510024077332,-0.146418767547,0.111545388525,0.0025,0.0,0.0,0.0,0.0025,0.0,0.0,0.0,0.0025,-0.12,0.03,0.07,0.02,0.0,0.0,0.0,0.02,0.0,0.0,0.0,0.02,4.79766210937,-0.598702265625,-11.2711542969,0.04,0.0,0.0,0.0,0.04,0.0,0.0,0.0,0.04
1597380904095576453,28684,1596774723517508029,imu_link,-0.839958039198,-0.509964295708,-0.14879293119,0.110759076911,0.0025,0.0,0.0,0.0,0.0025,0.0,0.0,0.0,0.0025,-0.21,0.07,-0.06,0.02,0.0,0.0,0.0,0.02,0.0,0.0,0.0,0.02,2.73878515625,-0.028728515625,-10.5096571094,0.04,0.0,0.0,0.0,0.04,0.0,0.0,0.0,0.04
1597380904115786663,28685,1596774723537343978,imu_link,-0.840183053732,-0.511188052241,-0.146531468476,0.106337858798,0.0025,0.0,0.0,0.0,0.0025,0.0,0.0,0.0,0.0025,-0.1,0.11,-0.09,0.02,0.0,0.0,0.0,0.02,0.0,0.0,0.0,0.02,1.32649132812,0.426331171875,-10.6391269531,0.04,0.0,0.0,0.0,0.04,0.0,0.0,0.0,0.04
1597380904136648721,28686,1596774723557499885,imu_link,-0.841332931542,-0.512366983016,-0.140679342962,0.0992385785941,0.0025,0.0,0.0,0.0,0.0025,0.0,0.0,0.0,0.0025,0.02,0.21,0.0,0.02,0.0,0.0,0.0,0.02,0.0,0.0,0.0,0.02,1.58504796875,0.416755,-10.6008222656,0.04,0.0,0.0,0.0,0.04,0.0,0.0,0.0,0.04
1597380904155808099,28687,1596774723577625036,imu_link,-0.842626096078,-0.512646090916,-0.136160706356,0.0929274433144,0.0025,0.0,0.0,0.0,0.0025,0.0,0.0,0.0,0.0025,-0.03,0.19,0.09,0.02,0.0,0.0,0.0,0.02,0.0,0.0,0.0,0.02,1.72869054688,0.21067578125,-10.2032196094,0.04,0.0,0.0,0.0,0.04,0.0,0.0,0.0,0.04
1597380904175407023,28688,1596774723597419977,imu_link,-0.843579622544,-0.512749974716,-0.133163355219,0.0879113456001,0.0025,0.0,0.0,0.0,0.0025,0.0,0.0,0.0,0.0025,-0.11,0.28,0.07,0.02,0.0,0.0,0.0,0.02,0.0,0.0,0.0,0.02,1.28320703125,0.143642578125,-9.03990625,0.04,0.0,0.0,0.0,0.04,0.0,0.0,0.0,0.04
1597380904195304260,28689,1596774723617398977,imu_link,-0.844267701624,-0.51308803836,-0.130070948072,0.0838705034754,0.0025,0.0,0.0,0.0,0.0025,0.0,0.0,0.0,0.0025,-0.07,0.28,0.04,0.02,0.0,0.0,0.0,0.02,0.0,0.0,0.0,0.02,1.85318078125,0.162794921875,-8.51819640625,0.04,0.0,0.0,0.0,0.04,0.0,0.0,0.0,0.04
1597380904214896971,28690,1596774723637351036,imu_link,-0.844165314491,-0.51380710632,-0.129077680373,0.0820129973501,0.0025,0.0,0.0,0.0,0.0025,0.0,0.0,0.0,0.0025,-0.01,0.19,-0.0,0.02,0.0,0.0,0.0,0.02,0.0,0.0,0.0,0.02,2.66677234375,-0.139046015625,-8.29794445312,0.04,0.0,0.0,0.0,0.04,0.0,0.0,0.0,0.04
1597380904235780321,28691,1596774723657368898,imu_link,-0.843429618635,-0.514913208261,-0.129437369819,0.0820782167391,0.0025,0.0,0.0,0.0,0.0025,0.0,0.0,0.0,0.0025,-0.04,0.04,-0.09,0.02,0.0,0.0,0.0,0.02,0.0,0.0,0.0,0.02,2.221671875,-0.17696765625,-8.47031554687,0.04,0.0,0.0,0.0,0.04,0.0,0.0,0.0,0.04
1597380904255381200,28692,1596774723677382946,imu_link,-0.842893067605,-0.516352244473,-0.127824684983,0.0810708709712,0.0025,0.0,0.0,0.0,0.0025,0.0,0.0,0.0,0.0025,-0.04,0.02,-0.11,0.02,0.0,0.0,0.0,0.02,0.0,0.0,0.0,0.02,2.3702940625,-0.047880859375,-8.11101757812,0.04,0.0,0.0,0.0,0.04,0.0,0.0,0.0,0.04
1597380904275226356,28693,1596774723697374105,imu_link,-0.842513353586,-0.517402998575,-0.127145674281,0.0793685303302,0.0025,0.0,0.0,0.0,0.0025,0.0,0.0,0.0,0.0025,-0.09,-0.06,-0.09,0.02,0.0,0.0,0.0,0.02,0.0,0.0,0.0,0.02,2.8728515625,0.579549921875,-7.967375,0.04,0.0,0.0,0.0,0.04,0.0,0.0,0.0,0.04
1597380904295581150,28694,1596774723717324018,imu_link,0.841772555697,0.518427711069,0.129415179553,-0.0768334834003,0.0025,0.0,0.0,0.0,0.0025,0.0,0.0,0.0,0.0025,-0.11,-0.06,-0.04,0.02,0.0,0.0,0.0,0.02,0.0,0.0,0.0,0.02,3.140984375,1.00549804687,-7.28287023437,0.04,0.0,0.0,0.0,0.04,0.0,0.0,0.0,0.04
1597380904316907955,28695,1596774723737420082,imu_link,0.84126574732,0.518821248471,0.132268274949,-0.0748435565864,0.0025,0.0,0.0,0.0,0.0025,0.0,0.0,0.0,0.0025,-0.01,-0.11,0.04,0.02,0.0,0.0,0.0,0.02,0.0,0.0,0.0,0.02,3.46657421875,0.842703125,-7.68966601562,0.04,0.0,0.0,0.0,0.04,0.0,0.0,0.0,0.04
1597380904335068863,28696,1596774723757386922,imu_link,0.840624070623,0.518989817402,0.135844210873,-0.0744788002978,0.0025,0.0,0.0,0.0,0.0025,0.0,0.0,0.0,0.0025,0.06,-0.06,0.07,0.02,0.0,0.0,0.0,0.02,0.0,0.0,0.0,0.02,3.61021679687,0.469232421875,-7.6226328125,0.04,0.0,0.0,0.0,0.04,0.0,0.0,0.0,0.04
1597380904355591697,28697,1596774723777138948,imu_link,0.839735133663,0.519281944781,0.139096305362,-0.0764420365425,0.0025,0.0,0.0,0.0,0.0025,0.0,0.0,0.0,0.0025,0.11,-0.01,0.04,0.02,0.0,0.0,0.0,0.02,0.0,0.0,0.0,0.02,3.45240148437,0.392623046875,-8.01065929687,0.04,0.0,0.0,0.0,0.04,0.0,0.0,0.0,0.04
1597380904375603009,28698,1596774723797307968,imu_link,0.838643535585,0.519883013421,0.1419597774,-0.0790322350578,0.0025,0.0,0.0,0.0,0.0025,0.0,0.0,0.0,0.0025,0.17,0.1,0.02,0.02,0.0,0.0,0.0,0.02,0.0,0.0,0.0,0.02,3.18886523437,0.603298828125,-7.0863671875,0.04,0.0,0.0,0.0,0.04,0.0,0.0,0.0,0.04
1597380904395292900,28699,1596774723817186117,imu_link,0.838074934931,0.519978451815,0.143484393396,-0.081639708109,0.0025,0.0,0.0,0.0,0.0025,0.0,0.0,0.0,0.0025,0.28,0.07,0.06,0.02,0.0,0.0,0.0,0.02,0.0,0.0,0.0,0.02,3.52901085937,0.44050390625,-8.0056796875,0.04,0.0,0.0,0.0,0.04,0.0,0.0,0.0,0.04
1597380904415296811,28700,1596774723837181091,imu_link,0.837295926515,0.519754439849,0.14665583702,-0.0853400208922,0.0025,0.0,0.0,0.0,0.0025,0.0,0.0,0.0,0.0025,0.27,0.19,0.11,0.02,0.0,0.0,0.0,0.02,0.0,0.0,0.0,0.02,3.70138195312,-0.15321875,-7.74252648437,0.04,0.0,0.0,0.0,0.04,0.0,0.0,0.0,0.04
1597380904435655026,28701,1596774723857151031,imu_link,0.837128075656,0.518391014982,0.149533057245,-0.0901510140026,0.0025,0.0,0.0,0.0,0.0025,0.0,0.0,0.0,0.0025,0.16,0.18,0.13,0.02,0.0,0.0,0.0,0.02,0.0,0.0,0.0,0.02,3.84004492187,-0.741961796875,-7.79998351562,0.04,0.0,0.0,0.0,0.04,0.0,0.0,0.0,0.04
1597380904455405794,28702,1596774723877162933,imu_link,-0.836586873863,-0.517413906297,-0.152086530884,0.0963064856271,0.0025,0.0,0.0,0.0,0.0025,0.0,0.0,0.0,0.0025,0.08,0.2,0.04,0.02,0.0,0.0,0.0,0.02,0.0,0.0,0.0,0.02,3.89750195312,-0.354318359375,-7.694645625,0.04,0.0,0.0,0.0,0.04,0.0,0.0,0.0,0.04
1597380904475147696,28703,1596774723897150993,imu_link,-0.83536224792,-0.517348662921,-0.155831878781,0.101176584637,0.0025,0.0,0.0,0.0,0.0025,0.0,0.0,0.0,0.0025,0.11,0.24,-0.03,0.02,0.0,0.0,0.0,0.02,0.0,0.0,0.0,0.02,4.15605859375,-0.373470703125,-7.58930773437,0.04,0.0,0.0,0.0,0.04,0.0,0.0,0.0,0.04
1597380904494938886,28704,1596774723917247056,imu_link,-0.833716515016,-0.517757158155,-0.159581920066,0.106667279692,0.0025,0.0,0.0,0.0,0.0025,0.0,0.0,0.0,0.0025,0.18,0.21,-0.11,0.02,0.0,0.0,0.0,0.02,0.0,0.0,0.0,0.02,4.74020507812,-0.507537109375,-7.737546875,0.04,0.0,0.0,0.0,0.04,0.0,0.0,0.0,0.04
1597380904515433027,28705,1596774723937114000,imu_link,-0.831652417891,-0.518198223613,-0.164663407924,0.112742267813,0.0025,0.0,0.0,0.0,0.0025,0.0,0.0,0.0,0.0025,0.14,0.13,-0.2,0.02,0.0,0.0,0.0,0.02,0.0,0.0,0.0,0.02,4.83137023437,-0.04290125,-8.92997179687,0.04,0.0,0.0,0.0,0.04,0.0,0.0,0.0,0.04
1597380904535885908,28706,1596774723957087993,imu_link,-0.829538112811,-0.519268786336,-0.17012350498,0.115258144986,0.0025,0.0,0.0,0.0,0.0025,0.0,0.0,0.0,0.0025,0.06,0.16,-0.25,0.02,0.0,0.0,0.0,0.02,0.0,0.0,0.0,0.02,4.30468078125,0.20607921875,-8.75760070312,0.04,0.0,0.0,0.0,0.04,0.0,0.0,0.0,0.04
1597380904555383394,28707,1596774723977035045,imu_link,-0.827895366797,-0.520627083439,-0.173981387451,0.115183238568,0.0025,0.0,0.0,0.0,0.0025,0.0,0.0,0.0,0.0025,0.02,0.14,-0.19,0.02,0.0,0.0,0.0,0.02,0.0,0.0,0.0,0.02,4.44334375,0.062436640625,-9.40878039062,0.04,0.0,0.0,0.0,0.04,0.0,0.0,0.0,0.04
1597380904575312744,28708,1596774723997169017,imu_link,-0.827301465896,-0.520867276236,-0.176651952939,0.114296336754,0.0025,0.0,0.0,0.0,0.0025,0.0,0.0,0.0,0.0025,-0.09,0.1,-0.12,0.02,0.0,0.0,0.0,0.02,0.0,0.0,0.0,0.02,4.4004425,0.296861328125,-9.4995625,0.04,0.0,0.0,0.0,0.04,0.0,0.0,0.0,0.04
1597380904595039217,28709,1596774724017008066,imu_link,0.827228376481,0.520644769303,0.178950815036,-0.112244568425,0.0025,0.0,0.0,0.0,0.0025,0.0,0.0,0.0,0.0025,-0.11,0.06,-0.04,0.02,0.0,0.0,0.0,0.02,0.0,0.0,0.0,0.02,4.62529101562,0.349721796875,-10.538385625,0.04,0.0,0.0,0.0,0.04,0.0,0.0,0.0,0.04
1597380904614702998,28710,1596774724036870956,imu_link,0.826904186456,0.520984846576,0.179778818901,-0.111731071479,0.0025,0.0,0.0,0.0,0.0025,0.0,0.0,0.0,0.0025,0.06,0.11,-0.05,0.02,0.0,0.0,0.0,0.02,0.0,0.0,0.0,0.02,5.53004773437,0.253960078125,-11.1179355469,0.04,0.0,0.0,0.0,0.04,0.0,0.0,0.0,0.04
1597380904635209007,28711,1596774724056884050,imu_link,0.826285085399,0.521341512677,0.180917224246,-0.112804888097,0.0025,0.0,0.0,0.0,0.0025,0.0,0.0,0.0,0.0025,0.13,0.07,-0.1,0.02,0.0,0.0,0.0,0.02,0.0,0.0,0.0,0.02,5.42470984375,0.215655390625,-11.9460828906,0.04,0.0,0.0,0.0,0.04,0.0,0.0,0.0,0.04
1597380904655254737,28712,1596774724076920032,imu_link,0.825809033978,0.521814872049,0.181678149494,-0.112879266052,0.0025,0.0,0.0,0.0,0.0025,0.0,0.0,0.0,0.0025,0.05,0.1,-0.11,0.02,0.0,0.0,0.0,0.02,0.0,0.0,0.0,0.02,5.04166296875,1.719114375,-11.6683739062,0.04,0.0,0.0,0.0,0.04,0.0,0.0,0.0,0.04
1597380904674657765,28713,1596774724096872091,imu_link,0.826469841733,0.520897344086,0.182560013504,-0.110839519569,0.0025,0.0,0.0,0.0,0.0025,0.0,0.0,0.0,0.0025,0.11,0.05,0.15,0.02,0.0,0.0,0.0,0.02,0.0,0.0,0.0,0.02,5.02749023437,0.809378046875,-12.4011425781,0.04,0.0,0.0,0.0,0.04,0.0,0.0,0.0,0.04
1597380904695633618,28714,1596774724116955041,imu_link,0.828094666678,0.517928742371,0.183262204491,-0.111463021902,0.0025,0.0,0.0,0.0,0.0025,0.0,0.0,0.0,0.0025,0.07,0.2,0.31,0.02,0.0,0.0,0.0,0.02,0.0,0.0,0.0,0.02,4.060296875,0.119893671875,-11.7162547656,0.04,0.0,0.0,0.0,0.04,0.0,0.0,0.0,0.04
1597380904716531839,28715,1596774724137329101,imu_link,0.831134797947,0.513290833448,0.182616602579,-0.111349200278,0.0025,0.0,0.0,0.0,0.0025,0.0,0.0,0.0,0.0025,-0.04,0.26,0.5,0.02,0.0,0.0,0.0,0.02,0.0,0.0,0.0,0.02,3.48113,-1.43182921875,-12.2670761719,0.04,0.0,0.0,0.0,0.04,0.0,0.0,0.0,0.04
